Name	YT Scope Project	
File	C:\Users\Administrator\Documents\TcXaeShell\TwinCAT_260713\ScopeLog\2026-08-21_Scope_B_swing.csv	
Starttime of export	134317722693060000	Friday, August 21, 2026	16:51:09.306
Endtime of export	134317723458060000	Friday, August 21, 2026	16:52:25.806


Name	actposB	Name	actposX	Name	actveloX	Name	setposX	Name	setposB	Name	setveloX	Name	setAccX
SymbolComment	B coordinate.	SymbolComment	X coordinate.	SymbolComment	X coordinate.	SymbolComment	X coordinate.	SymbolComment	B coordinate.	SymbolComment	X coordinate.	SymbolComment	X coordinate.
Data-Type	REAL64	Data-Type	REAL64	Data-Type	REAL64	Data-Type	REAL64	Data-Type	REAL64	Data-Type	REAL64	Data-Type	REAL64
SampleTime[ms]	10	SampleTime[ms]	10	SampleTime[ms]	10	SampleTime[ms]	10	SampleTime[ms]	10	SampleTime[ms]	10	SampleTime[ms]	10
VariableSize	8	VariableSize	8	VariableSize	8	VariableSize	8	VariableSize	8	VariableSize	8	VariableSize	8
SymbolBased	True	SymbolBased	True	SymbolBased	True	SymbolBased	True	SymbolBased	True	SymbolBased	True	SymbolBased	True
IndexGroup	61462	IndexGroup	61462	IndexGroup	61462	IndexGroup	61462	IndexGroup	61462	IndexGroup	61462	IndexGroup	61462
IndexOffset	0	IndexOffset	0	IndexOffset	0	IndexOffset	0	IndexOffset	0	IndexOffset	0	IndexOffset	0
SymbolName	MAIN.Xpmover[0].MCTOPLC.ACT.ActPos.b	SymbolName	MAIN.Xpmover[0].MCTOPLC.ACT.ActPos.x	SymbolName	MAIN.Xpmover[0].MCTOPLC.ACT.ActVelo.x	SymbolName	MAIN.Xpmover[0].MCTOPLC.SET.SetPos.x	SymbolName	MAIN.Xpmover[0].MCTOPLC.SET.SetPos.b	SymbolName	MAIN.Xpmover[0].MCTOPLC.SET.SetVelo.x	SymbolName	MAIN.Xpmover[0].MCTOPLC.SET.SetAcc.x
NetID	169.254.116.218.1.1	NetID	169.254.116.218.1.1	NetID	169.254.116.218.1.1	NetID	169.254.116.218.1.1	NetID	169.254.116.218.1.1	NetID	169.254.116.218.1.1	NetID	169.254.116.218.1.1
Port	851	Port	851	Port	851	Port	851	Port	851	Port	851	Port	851
Offset	0	Offset	0	Offset	0	Offset	0	Offset	0	Offset	0	Offset	0
ScaleFactor	1	ScaleFactor	1	ScaleFactor	1	ScaleFactor	1	ScaleFactor	1	ScaleFactor	1	ScaleFactor	1
BitMask	0xffffffffffffffff	BitMask	0xffffffffffffffff	BitMask	0xffffffffffffffff	BitMask	0xffffffffffffffff	BitMask	0xffffffffffffffff	BitMask	0xffffffffffffffff	BitMask	0xffffffffffffffff
Unit	(None)	Unit	(None)	Unit	(None)	Unit	(None)	Unit	(None)	Unit	(None)	Unit	(None)
Unit ScaleFactor	1	Unit ScaleFactor	1	Unit ScaleFactor	1	Unit ScaleFactor	1	Unit ScaleFactor	1	Unit ScaleFactor	1	Unit ScaleFactor	1
Unit Offset	0	Unit Offset	0	Unit Offset	0	Unit Offset	0	Unit Offset	0	Unit Offset	0	Unit Offset	0

0	-0,065731064980846	0	119,99805496999342	0	-0,25089020474804968	0	120	0	-0,057197011116605245	0	0	0	0
10	-0,05729039151705468	10	119,99869635698336	10	0,54851944503778038	10	120	10	-0,057197011116605245	10	0	10	0
20	-0,056208004727954466	20	119,99887546499141	20	0,083035467797165322	20	120	20	-0,057197011116605245	20	0	20	0
30	-0,05870557304365033	30	120,00006906468259	30	0,4463454296910957	30	120	30	-0,057197011116605245	30	0	30	0
40	-0,053338526781350259	40	119,9989080088522	40	0,2014933344050821	40	120	40	-0,057197011116605245	40	0	40	0
50	-0,069486773184107051	50	119,99665219922149	50	-0,51020950340498983	50	120	50	-0,057197011116605245	50	0	50	0
60	-0,058278398093817942	60	120,00177829456213	60	0,47846403132498516	60	120	60	-0,057197011116605245	60	0	60	0
70	-0,065067001499318378	70	120,0011761524428	70	0,02118988459375673	70	120	70	-0,057197011116605245	70	0	70	0
80	-0,054343669717949683	80	120,00257477528835	80	-0,33802922631089033	80	120	80	-0,057197011116605245	80	0	80	0
90	-0,0515892143936928	90	120,00206312647654	90	0,73053055265080713	90	120	90	-0,057197011116605245	90	0	90	0
100	-0,059412199209912947	100	119,99982036100332	100	-0,21649249166640877	100	120	100	-0,057197011116605245	100	0	100	0
110	-0,059683130455541127	110	120,00047125821691	110	0,30474459446147623	110	120	110	-0,057197011116605245	110	0	110	0
120	-0,065903411054424	120	119,99985570732233	120	-0,52302252671544358	120	120	120	-0,057197011116605245	120	0	120	0
130	-0,056632232685092293	130	119,998726922682	130	0,088945539881896463	130	120	130	-0,057197011116605245	130	0	130	0
140	-0,075541880741318027	140	119,99431284882385	140	-0,71113834472196091	140	120	140	-0,057197011116605245	140	0	140	0
150	-0,055245541818958653	150	119,99931321131926	150	0,24498443696587913	150	120	150	-0,057197011116605245	150	0	150	0
160	-0,063788567796089782	160	119,99708363485104	160	-0,082820773103904927	160	120	160	-0,057197011116605245	160	0	160	0
170	-0,064053207671789569	170	119,99976175906869	170	-0,0076486784021428111	170	120	170	-0,057197011116605245	170	0	170	0
180	-0,061000562101057969	180	120,00132992972908	180	0,36267218070207308	180	120	180	-0,057197011116605245	180	0	180	0
190	-0,063786712583443012	190	119,99960468692574	190	-0,24517335647167304	190	120	190	-0,057197011116605245	190	0	190	0
200	-0,0513839643697753	200	120,00036160168581	200	0,35465465259057827	200	120	200	-0,057197011116605245	200	0	200	0
210	-0,055873815238477051	210	119,99651099978547	210	0,30319958470765812	210	120	210	-0,057197011116605245	210	0	210	0
220	-0,0596229189858124	220	119,99700955756909	220	0,30659831098047824	220	120	220	-0,057197011116605245	220	0	220	0
230	-0,071269919486312311	230	119,99657566007898	230	-0,17147213147320284	230	120	230	-0,057197011116605245	230	0	230	0
240	-0,062011459569537845	240	120,00274385603171	240	0,66575411656672534	240	120	240	-0,057197011116605245	240	0	240	0
250	-0,052769930590990062	250	120,00403506186203	250	0,26792484918668186	250	120	250	-0,057197011116605245	250	0	250	0
260	-0,059066228432963191	260	120,00373955707914	260	0,019743202461684151	260	120	260	-0,057197011116605245	260	0	260	0
270	-0,059364240064127022	270	120,00071022903252	270	0,042526240202376081	270	120	270	-0,057197011116605245	270	0	270	0
280	-0,0631251072694102	280	119,99803373646	280	-0,20563298693040968	280	120	280	-0,057197011116605245	280	0	280	0
290	-0,044233274505303448	290	120,00202724600177	290	0,72331291121725116	290	120	290	-0,057197011116605245	290	0	290	0
300	-0,066153261136464983	300	119,99586936857375	300	-0,24972195117953194	300	120	300	-0,057197011116605245	300	0	300	0
310	-0,071339161073528	310	119,99669725175791	310	-0,37003160868948803	310	120	310	-0,057197011116605245	310	0	310	0
320	-0,053121327698961579	320	120,00014527942209	320	1,229743055992168	320	120	320	-0,057197011116605245	320	0	320	0
330	-0,06234365915941923	330	119,99938665387134	330	0,11359418344550554	330	120	330	-0,057197011116605245	330	0	330	0
340	-0,063296161608833737	340	119,99980234416454	340	0,57104777989699729	340	120	340	-0,057197011116605245	340	0	340	0
350	-0,064873394314816965	350	119,99902203803984	350	-0,36316779659618326	350	120	350	-0,057197011116605245	350	0	350	0
360	-0,066058089359993424	360	119,99703322493259	360	-0,52645472640992452	360	120	360	-0,057197011116605245	360	0	360	0
370	-0,054484129023845154	370	119,99724227472512	370	0,23241468745055641	370	120	370	-0,057197011116605245	370	0	370	0
380	-0,060286634596190374	380	119,99925985516599	380	0,0538588714249055	380	120	380	-0,057197011116605245	380	0	380	0
390	-0,063191520872147744	390	120,00124752429719	390	0,29371674905374046	390	120	390	-0,057197011116605245	390	0	390	0
400	-0,070601144604897734	400	119,99667442148686	400	-0,10872241165054161	400	120	400	-0,057197011116605245	400	0	400	0
410	-0,061989133157626913	410	119,99881620546363	410	0,11334740997404195	410	120	410	-0,057197011116605245	410	0	410	0
420	-0,056113496421465313	420	120,00296575621891	420	0,0018572190166541991	420	120	420	-0,057197011116605245	420	0	420	0
430	-0,0539866891218322	430	120,00325783401932	430	0,35745981603283328	430	120	430	-0,057197011116605245	430	0	430	0
440	-0,06070016017922724	440	119,99975858361937	440	-0,40062834761412564	440	120	440	-0,057197011116605245	440	0	440	0
450	-0,054285853636641256	450	119,99681222472407	450	0,17562617456303412	450	120	450	-0,057197011116605245	450	0	450	0
460	-0,062973867954091017	460	119,99588641382125	460	-0,075047666504064262	460	120	460	-0,057197011116605245	460	0	460	0
470	-0,066444583296525639	470	119,99512894626056	470	0,0071847227217478743	470	120	470	-0,057197011116605245	470	0	470	0
480	-0,06385937517684892	480	119,99826325128518	480	0,41443310841084824	480	120	480	-0,057197011116605245	480	0	480	0
490	-0,072131232782189109	490	119,99899249168651	490	-0,14271565575648409	490	120	490	-0,057197011116605245	490	0	490	0
500	-0,055755911832879923	500	120,00310771170835	500	0,736167614631616	500	120	500	-0,057197011116605245	500	0	500	0
510	-0,06877924927432974	510	119,99976479518939	510	-0,48317733470363022	510	120	510	-0,057197011116605245	510	0	510	0
520	-0,061385003728208508	520	119,99954500025102	520	-0,1348738904750274	520	120	520	-0,057197011116605245	520	0	520	0
530	-0,0537299518768329	530	119,99870837297718	530	0,18103088966700498	530	120	530	-0,057197011116605245	530	0	530	0
540	-0,066189791706156673	540	119,99931254968682	540	0,184513034703014	540	120	540	-0,057197011116605245	540	0	540	0
550	-0,0687353538691378	550	119,9968051150171	550	-0,54934257931687713	550	120	550	-0,057197011116605245	550	0	550	0
560	-0,070556088520030716	560	119,99716412679774	560	-0,89801767795190546	560	120	560	-0,057197011116605245	560	0	560	0
570	-0,063502414298986815	570	119,99749403565122	570	-0,21790777999919375	570	120	570	-0,057197011116605245	570	0	570	0
580	-0,060541488794413373	580	119,99739124317807	580	-0,29437585016107876	580	120	580	-0,057197011116605245	580	0	580	0
590	-0,069218764917826262	590	119,99667587282929	590	-0,22507958354588487	590	120	590	-0,057197011116605245	590	0	590	0
600	-0,062328275875132434	600	119,99866175664816	600	0,1628959628901665	600	120	600	-0,057197011116605245	600	0	600	0
610	-0,061371424851646629	610	119,99683516193167	610	-0,17810168349480235	610	120	610	-0,057197011116605245	610	0	610	0
620	-0,060972477923807646	620	120,00040689343177	620	0,23398498098555215	620	120	620	-0,057197011116605245	620	0	620	0
630	-0,069088980928009164	630	119,99704349929509	630	-0,97948393696230018	630	120	630	-0,057197011116605245	630	0	630	0
640	-0,065253667982941133	640	119,99899500540165	640	-0,061575083669139663	640	120	640	-0,057197011116605245	640	0	640	0
650	-0,067763363107293792	650	119,9998048543742	650	-0,1800824088974442	650	120	650	-0,057197011116605245	650	0	650	0
660	-0,062073861977961928	660	120,00233621371487	660	-0,073519982509148263	660	120	660	-0,057197011116605245	660	0	660	0
670	-0,066926347967181318	670	119,99609723378808	670	-0,28721365460187093	670	120	670	-0,057197011116605245	670	0	670	0
680	-0,0670801917975101	680	119,99728348807143	680	-0,38052987306668151	680	120	680	-0,057197011116605245	680	0	680	0
690	-0,060869399182261349	690	119,99902229830121	690	0,65214760311221731	690	120	690	-0,057197011116605245	690	0	690	0
700	-0,057655587611358243	700	120,00157015812485	700	1,0241416001380146	700	120	700	-0,057197011116605245	700	0	700	0
710	-0,057652687029614354	710	120,00392195090343	710	0,23055840676340611	710	120	710	-0,057197011116605245	710	0	710	0
720	-0,056787673922898095	720	119,99813524748268	720	-0,43719249870451271	720	120	720	-0,057197011116605245	720	0	720	0
730	-0,054825773838450019	730	120,00233857449264	730	0,49415115005558841	730	120	730	-0,057197011116605245	730	0	730	0
740	-0,054363941906899887	740	119,99938901330553	740	0,2862255242025093	740	120	740	-0,057197011116605245	740	0	740	0
750	-0,0694767287698524	750	119,99480607640173	750	-0,841644937546894	750	120	750	-0,057197011116605245	750	0	750	0
760	-0,064957898161596486	760	120,00060383321458	760	0,40168923403178658	760	120	760	-0,057197011116605245	760	0	760	0
770	-0,065249540648099777	770	120,00048500383645	770	0,15407114211221906	770	120	770	-0,057197011116605245	770	0	770	0
780	-0,0677637166314744	780	119,99569953326503	780	-0,15979768905266711	780	120	780	-0,057197011116605245	780	0	780	0
790	-0,056953096952943087	790	119,99632108711018	790	0,25315889406152953	790	120	790	-0,057197011116605245	790	0	790	0
800	-0,061198791604365796	800	119,99563537103043	800	-0,0999117921506523	800	120	800	-0,057197011116605245	800	0	800	0
810	-0,07366639252381578	810	119,99665002090825	810	-0,42487638100302938	810	120	810	-0,057197011116605245	810	0	810	0
820	-0,062091763486032917	820	119,99871959450583	820	0,19949930560386264	820	120	820	-0,057197011116605245	820	0	820	0
830	-0,058279703334859469	830	120,0028196761242	830	0,50819976346950324	830	120	830	-0,057197011116605245	830	0	830	0
840	-0,067637701203058009	840	119,99933560609165	840	-1,1782968989600489	840	120	840	-0,057197011116605245	840	0	840	0
850	-0,046620803831468507	850	120,00255603335172	850	0,7744202590384186	850	120	850	-0,057197011116605245	850	0	850	0
860	-0,055625842311789041	860	120,00181646412075	860	0,11500456561509742	860	120	860	-0,057197011116605245	860	0	860	0
870	-0,068170873448151884	870	119,99812108485845	870	-0,44278501487041422	870	120	870	-0,057197011116605245	870	0	870	0
880	-0,058231369929227179	880	120,00158702388737	880	0,14723397160568508	880	120	880	-0,057197011116605245	880	0	880	0
890	-0,06320236492031818	890	120,00190870201261	890	0,14980877816929111	890	120	890	-0,057197011116605245	890	0	890	0
900	-0,066344667098140561	900	119,99732343095884	900	-0,1253672720589567	900	120	900	-0,057197011116605245	900	0	900	0
910	-0,062131467042879675	910	119,997658637438	910	0,2941622536327837	910	120	910	-0,057197011116605245	910	0	910	0
920	-0,06455953215695702	920	119,99732680896111	920	-0,081719598386383763	920	120	920	-0,057197011116605245	920	0	920	0
930	-0,061815041914415884	930	119,99840986330106	930	0,11698534382872022	930	120	930	-0,057197011116605245	930	0	930	0
940	-0,061115067253562291	940	119,99770171837132	940	-0,020264987592202882	940	120	940	-0,057197011116605245	940	0	940	0
950	-0,066921395993103372	950	119,99815032702237	950	0,16019615412713076	950	120	950	-0,057197011116605245	950	0	950	0
960	-0,053394116383929942	960	119,99960378085216	960	0,58548046778789242	960	120	960	-0,057197011116605245	960	0	960	0
970	-0,066484912776601485	970	119,99892673314542	970	-0,1348795074350303	970	120	970	-0,057197011116605245	970	0	970	0
980	-0,059753152556856273	980	119,99878362899021	980	-0,24251659929747924	980	120	980	-0,057197011116605245	980	0	980	0
990	-0,067305360093034255	990	119,9987374655415	990	-0,23586791453697498	990	120	990	-0,057197011116605245	990	0	990	0
1000	-0,0687375392574313	1000	120,00108626280034	1000	-0,29031818333850723	1000	120	1000	-0,057197011116605245	1000	0	1000	0
1010	-0,063848683648216373	1010	119,99849392474644	1010	-0,43539044516892539	1010	120	1010	-0,057197011116605245	1010	0	1010	0
1020	-0,065856760449103768	1020	119,99630131518448	1020	-0,38796590431743	1020	120	1020	-0,057197011116605245	1020	0	1020	0
1030	-0,056765431244353876	1030	119,99957885745003	1030	0,40947103762298859	1030	120	1030	-0,057197011116605245	1030	0	1030	0
1040	-0,056558615135684928	1040	120,00378276587064	1040	0,40773244311247947	1040	120	1040	-0,057197011116605245	1040	0	1040	0
1050	-0,056046562472249976	1050	120,00234217456932	1050	0,51787922274982434	1050	120	1050	-0,057197011116605245	1050	0	1050	0
1060	-0,071897376717611747	1060	119,99649010131493	1060	-0,77331376196924362	1060	120	1060	-0,057197011116605245	1060	0	1060	0
1070	-0,060735037777118368	1070	119,99965525063689	1070	0,3752956986674702	1070	120	1070	-0,057197011116605245	1070	0	1070	0
1080	-0,05758620299394427	1080	119,99725045066195	1080	0,00013841639522055305	1080	120	1080	-0,057197011116605245	1080	0	1080	0
1090	-0,056692923595235388	1090	119,99886240042252	1090	0,36057368789356015	1090	120	1090	-0,057197011116605245	1090	0	1090	0
1100	-0,058943884277014705	1100	119,99740162595904	1100	0,20096556243025	1100	120	1100	-0,057197011116605245	1100	0	1100	0
1110	-0,066390761769443973	1110	119,99714812975857	1110	-0,047815515227837	1110	120	1110	-0,057197011116605245	1110	0	1110	0
1120	-0,0766113872374392	1120	119,9975814218645	1120	-0,1686160499384024	1120	120	1120	-0,057197011116605245	1120	0	1120	0
1130	-0,055809954704522421	1130	120,00225084197146	1130	0,57685382513235672	1130	120	1130	-0,057197011116605245	1130	0	1130	0
1140	-0,060235375622296639	1140	120,00212323059827	1140	0,070650667795825184	1140	120	1140	-0,057197011116605245	1140	0	1140	0
1150	-0,059791483067787463	1150	120,00176027805053	1150	0,1540562780262088	1150	120	1150	-0,057197011116605245	1150	0	1150	0
1160	-0,0600506136364309	1160	120,00171307748369	1160	0,13943469159884617	1160	120	1160	-0,057197011116605245	1160	0	1160	0
1170	-0,063582367904937223	1170	119,99912911421613	1170	-0,23565728232687477	1170	120	1170	-0,057197011116605245	1170	0	1170	0
1180	-0,053476621691005755	1180	119,99784781414925	1180	0,20734968215656383	1180	120	1180	-0,057197011116605245	1180	0	1180	0
1190	-0,054978200524567165	1190	119,99872113151393	1190	0,579192728211903	1190	120	1190	-0,057197011116605245	1190	0	1190	0
1200	-0,061868704000463605	1200	119,99970498127247	1200	0,27953586992059343	1200	120	1200	-0,057197011116605245	1200	0	1200	0
1210	-0,062179324353174907	1210	119,99956978337193	1210	0,24135212459880109	1210	120	1210	-0,057197011116605245	1210	0	1210	0
1220	-0,065593902428886727	1220	119,99682176762909	1220	-0,59166922724080229	1220	120	1220	-0,057197011116605245	1220	0	1220	0
1230	-0,058767858462244776	1230	119,99840596608964	1230	0,54224296027967367	1230	120	1230	-0,057197011116605245	1230	0	1230	0
1240	-0,062996454082127631	1240	119,99745149963917	1240	-0,39167761269007417	1240	120	1240	-0,057197011116605245	1240	0	1240	0
1250	-0,056441407447300827	1250	119,99800320736595	1250	0,95581195215650716	1250	120	1250	-0,057197011116605245	1250	0	1250	0
1260	-0,06209252862815709	1260	120,00143466357193	1260	-0,2958571996542152	1260	120	1260	-0,057197011116605245	1260	0	1260	0
1270	-0,064804188082760353	1270	120,00193706266853	1270	-0,58094900969313179	1270	120	1270	-0,057197011116605245	1270	0	1270	0
1280	-0,058983615096664874	1280	120,00251129858461	1280	0,11172026099722168	1280	120	1280	-0,057197011116605245	1280	0	1280	0
1290	-0,057682507277729174	1290	120,00348414404427	1290	0,40678073261509784	1290	120	1290	-0,057197011116605245	1290	0	1290	0
1300	-0,051826380118758376	1300	120,00209465967126	1300	-0,13918929592434598	1300	120	1300	-0,057197011116605245	1300	0	1300	0
1310	-0,0699942153720164	1310	119,99526862175576	1310	-0,31833054229846042	1310	120	1310	-0,057197011116605245	1310	0	1310	0
1320	-0,05384132920522354	1320	119,99925181690216	1320	0,96763056220657484	1320	120	1320	-0,057197011116605245	1320	0	1320	0
1330	-0,070472030186027379	1330	120,00014980958264	1330	-0,6824026673390502	1330	120	1330	-0,057197011116605245	1330	0	1330	0
1340	-0,050389028860226094	1340	119,99974870626481	1340	0,680459938864417	1340	120	1340	-0,057197011116605245	1340	0	1340	0
1350	-0,0586648300720176	1350	119,99702200169614	1350	0,37883927138535212	1350	120	1350	-0,057197011116605245	1350	0	1350	0
1360	-0,060527098891690986	1360	119,99910687365632	1360	0,22776118010232102	1360	120	1360	-0,057197011116605245	1360	0	1360	0
1370	-0,056494995945284288	1370	119,99953654221358	1370	0,26664956884872193	1370	120	1370	-0,057197011116605245	1370	0	1370	0
1380	-0,067700816909119652	1380	120,00023869453138	1380	-0,058163137653592933	1380	120	1380	-0,057197011116605245	1380	0	1380	0
1390	-0,066097912370295039	1390	120,00161110454792	1390	-0,47012891951626146	1390	120	1390	-0,057197011116605245	1390	0	1390	0
1400	-0,061933561939377241	1400	119,99991069606227	1400	-0,27186529358496336	1400	120	1400	-0,057197011116605245	1400	0	1400	0
1410	-0,072424467239525267	1410	119,99549322582477	1410	-0,98143919035410243	1410	120	1410	-0,057197011116605245	1410	0	1410	0
1420	-0,061347019302728095	1420	119,99858225954577	1420	-0,29935363654451019	1420	120	1420	-0,057197011116605245	1420	0	1420	0
1430	-0,064307900805392754	1430	119,9968603142103	1430	-0,37788323539217428	1430	120	1430	-0,057197011116605245	1430	0	1430	0
1440	-0,055360108198167862	1440	120,00021495921912	1440	-0,29366484244216173	1440	120	1440	-0,057197011116605245	1440	0	1440	0
1450	-0,052674351502067646	1450	120,00245206136567	1450	1,0068790534704057	1450	120	1450	-0,057197011116605245	1450	0	1450	0
1460	-0,062769947119763608	1460	119,99896861393221	1460	-0,4172862334093359	1460	120	1460	-0,057197011116605245	1460	0	1460	0
1470	-0,056538117511513067	1470	119,99757124143002	1470	0,079952972534068731	1470	120	1470	-0,057197011116605245	1470	0	1470	0
1480	-0,059783006863439195	1480	119,99819694460784	1480	-0,18790505456334294	1480	120	1480	-0,057197011116605245	1480	0	1480	0
1490	-0,0646060547981932	1490	119,99873970591369	1490	-0,23550625990848587	1490	120	1490	-0,057197011116605245	1490	0	1490	0
1500	-0,056144663439694542	1500	120,00065318998014	1500	0,96973456687734172	1500	120	1500	-0,057197011116605245	1500	0	1500	0
1510	-0,060502345855701738	1510	119,99922616668881	1510	-0,41869419415203768	1510	120	1510	-0,057197011116605245	1510	0	1510	0
1520	-0,069927449216316773	1520	119,99767706579175	1520	-0,67447599624289289	1520	120	1520	-0,057197011116605245	1520	0	1520	0
1530	-0,051806564333904889	1530	120,00177158712866	1530	0,44023083769147631	1530	120	1530	-0,057197011116605245	1530	0	1530	0
1540	-0,070615443527734051	1540	120,00043282469186	1540	-0,26962616852679588	1540	120	1540	-0,057197011116605245	1540	0	1540	0
1550	-0,073197773319720535	1550	119,99635148927912	1550	-0,6549313347111333	1550	120	1550	-0,057197011116605245	1550	0	1550	0
1560	-0,0707536997191689	1560	119,99852526199385	1560	0,1027567801950922	1560	120	1560	-0,057197011116605245	1560	0	1560	0
1570	-0,0541779815218068	1570	120,0026555287197	1570	0,43728219772623822	1570	120	1570	-0,057197011116605245	1570	0	1570	0
1580	-0,060346143006005055	1580	120,00118830551189	1580	-0,086872337838721669	1580	120	1580	-0,057197011116605245	1580	0	1580	0
1590	-0,063431995103450586	1590	119,99990132116351	1590	-0,299173309569328	1590	120	1590	-0,057197011116605245	1590	0	1590	0
1600	-0,055155576905528643	1600	119,99953704184945	1600	-0,0072382420160781932	1600	120	1600	-0,057197011116605245	1600	0	1600	0
1610	-0,061248954724547215	1610	119,999972566611	1610	-0,16145960945997023	1610	120	1610	-0,057197011116605245	1610	0	1610	0
1620	-0,066816911259824821	1620	120,00030328026509	1620	-0,31154453271434329	1620	120	1620	-0,057197011116605245	1620	0	1620	0
1630	-0,065623506718718153	1630	119,99908400302229	1630	-0,63773527115865813	1630	120	1630	-0,057197011116605245	1630	0	1630	0
1640	-0,064444085590359482	1640	119,99821274522371	1640	-0,13950208547569171	1640	120	1640	-0,057197011116605245	1640	0	1640	0
1650	-0,057483918841215904	1650	120,00072893509005	1650	0,75099634932427606	1650	120	1650	-0,057197011116605245	1650	0	1650	0
1660	-0,071555155941558882	1660	119,99766894483517	1660	-0,6325445296653146	1660	120	1660	-0,057197011116605245	1660	0	1660	0
1670	-0,059545093547229012	1670	120,00194701207472	1670	0,52636959172006137	1670	120	1670	-0,057197011116605245	1670	0	1670	0
1680	-0,06546064888197016	1680	119,99792770621625	1680	-0,7132465757190819	1680	120	1680	-0,057197011116605245	1680	0	1680	0
1690	-0,059298607136972312	1690	119,999007134149	1690	0,34184048008947421	1690	120	1690	-0,057197011116605245	1690	0	1690	0
1700	-0,054895190783433419	1700	120,00319397467192	1700	0,6751970737537758	1700	120	1700	-0,057197011116605245	1700	0	1700	0
1710	-0,05639828986419166	1710	120,00196668502112	1710	-0,0357528644990546	1710	120	1710	-0,057197011116605245	1710	0	1710	0
1720	-0,0612849635966558	1720	120,00213158019705	1720	-0,070525040018167978	1720	120	1720	-0,057197011116605245	1720	0	1720	0
1730	-0,061271640524281433	1730	120,00045147993447	1730	-0,15546989932422753	1730	120	1730	-0,057197011116605245	1730	0	1730	0
1740	-0,055192109460859611	1740	119,99875066388522	1740	0,47942923168132334	1740	120	1740	-0,057197011116605245	1740	0	1740	0
1750	-0,056546286092615979	1750	119,99864737904102	1750	0,31038101733591011	1750	120	1750	-0,057197011116605245	1750	0	1750	0
1760	-0,066093439545957491	1760	119,9992068117095	1760	-0,11680570594619415	1760	120	1760	-0,057197011116605245	1760	0	1760	0
1770	-0,062377812716642479	1770	120,00084440438509	1770	0,53043191311922766	1770	120	1770	-0,057197011116605245	1770	0	1770	0
1780	-0,061197589292719005	1780	119,9982066096694	1780	0,24872388078354543	1780	120	1780	-0,057197011116605245	1780	0	1780	0
1790	-0,065888439068658045	1790	119,99832052037453	1790	-0,15002359398720833	1790	120	1790	-0,057197011116605245	1790	0	1790	0
1800	-0,06187634421764792	1800	119,99972071200835	1800	-0,21443854208841381	1800	120	1800	-0,057197011116605245	1800	0	1800	0
1810	-0,051980721356331562	1810	120,0022517141321	1810	0,79933631523339888	1810	120	1810	-0,057197011116605245	1810	0	1810	0
1820	-0,053367027267115556	1820	120,00177431305355	1820	-0,068873189426205	1820	120	1820	-0,057197011116605245	1820	0	1820	0
1830	-0,067900527962128712	1830	120,00154027755151	1830	-0,47029871857205474	1830	120	1830	-0,057197011116605245	1830	0	1830	0
1840	-0,051392842213755514	1840	120,00394246817533	1840	0,34399481709228791	1840	120	1840	-0,057197011116605245	1840	0	1840	0
1850	-0,062083168079813261	1850	120,0005493826426	1850	-0,2730973793241952	1850	120	1850	-0,057197011116605245	1850	0	1850	0
1860	-0,069119914256290133	1860	119,99871665571858	1860	-0,26591799818192813	1860	120	1860	-0,057197011116605245	1860	0	1860	0
1870	-0,058276377714934977	1870	120,00114994106015	1870	0,066682454208368117	1870	120	1870	-0,057197011116605245	1870	0	1870	0
1880	-0,061561841860899844	1880	119,99893595197932	1880	0,14537057220531494	1880	120	1880	-0,057197011116605245	1880	0	1880	0
1890	-0,073269112633239167	1890	119,99436951369472	1890	-0,37089214969623185	1890	120	1890	-0,057197011116605245	1890	0	1890	0
1900	-0,051326938327785745	1900	119,99858598755239	1900	0,48242357886490117	1900	120	1900	-0,057197011116605245	1900	0	1900	0
1910	-0,058383113426576608	1910	119,99902067784517	1910	-0,22670284831294815	1910	120	1910	-0,057197011116605245	1910	0	1910	0
1920	-0,062822093312056015	1920	120,0002011782892	1920	-0,2911866125628555	1920	120	1920	-0,057197011116605245	1920	0	1920	0
1930	-0,066657677096437551	1930	119,99974455062687	1930	-0,12946139730611242	1930	120	1930	-0,057197011116605245	1930	0	1930	0
1940	-0,062682700717623718	1940	119,9972954907264	1940	0,55131185060290688	1940	120	1940	-0,057197011116605245	1940	0	1940	0
1950	-0,055456171836017532	1950	120,00182828205296	1950	0,0810336320381726	1950	120	1950	-0,057197011116605245	1950	0	1950	0
1960	-0,0630843379921892	1960	120,00179139316828	1960	-0,38876957830134629	1960	120	1960	-0,057197011116605245	1960	0	1960	0
1970	-0,057190388075609243	1970	120,00134916369318	1970	-0,12827241347049015	1970	120	1970	-0,057197011116605245	1970	0	1970	0
1980	-0,054316124653499949	1980	119,99927658598685	1980	0,14122693099233949	1980	120	1980	-0,057197011116605245	1980	0	1980	0
1990	-0,06278304578542708	1990	119,99760571819051	1990	0,33794083017234233	1990	120	1990	-0,057197011116605245	1990	0	1990	0
2000	-0,0602975098790224	2000	119,99802838393232	2000	-0,18427950486806011	2000	120	2000	-0,057197011116605245	2000	0	2000	0
2010	-0,066117414544058714	2010	119,99713591981883	2010	-0,34315512848758095	2010	120	2010	-0,057197011116605245	2010	0	2010	0
2020	-0,06115196918947665	2020	119,99830968029318	2020	0,0951020387587132	2020	120	2020	-0,057197011116605245	2020	0	2020	0
2030	-0,053952029350932532	2030	120,00196623367962	2030	0,08114172904984901	2030	120	2030	-0,057197011116605245	2030	0	2030	0
2040	-0,064794000148048189	2040	120,00107343005834	2040	-0,41797366645248013	2040	120	2040	-0,057197011116605245	2040	0	2040	0
2050	-0,050422850032351779	2050	120,00571603092529	2050	0,848440373627716	2050	120	2050	-0,057197011116605245	2050	0	2050	0
2060	-0,070817704805603829	2060	120,00009103263523	2060	-0,12208438440407365	2060	120	2060	-0,057197011116605245	2060	0	2060	0
2070	-0,067510523368075753	2070	119,99758410632092	2070	-0,86121444689560778	2070	120	2070	-0,057197011116605245	2070	0	2070	0
2080	-0,053264673317891545	2080	120,00006871996837	2080	0,012513709870947742	2080	120	2080	-0,057197011116605245	2080	0	2080	0
2090	-0,052535732133847893	2090	120,00151553186313	2090	0,32045297508605208	2090	120	2090	-0,057197011116605245	2090	0	2090	0
2100	-0,058862372413335508	2100	119,99935440008655	2100	0,26322192360310115	2100	120	2100	-0,057197011116605245	2100	0	2100	0
2110	-0,055526442428851575	2110	119,99857013636726	2110	-0,3369764477968859	2110	120	2110	-0,057197011116605245	2110	0	2110	0
2120	-0,058933803019735408	2120	119,99820539674512	2120	0,20596585958597086	2120	120	2120	-0,057197011116605245	2120	0	2120	0
2130	-0,066794263760916878	2130	119,99793150119709	2130	0,2250349121258165	2130	120	2130	-0,057197011116605245	2130	0	2130	0
2140	-0,05905486096620479	2140	119,99825976574883	2140	0,542286541560725	2140	120	2140	-0,057197011116605245	2140	0	2140	0
2150	-0,066201666024747	2150	120,00144705953439	2150	0,36690375967428096	2150	120	2150	-0,057197011116605245	2150	0	2150	0
2160	-0,057997924911822193	2160	119,99938432679126	2160	-0,0891629494500154	2160	120	2160	-0,057197011116605245	2160	0	2160	0
2170	-0,057146710129177561	2170	120,00118060794576	2170	-0,072851529592614345	2170	120	2170	-0,057197011116605245	2170	0	2170	0
2180	-0,066040701254869966	2180	119,99785246886717	2180	-0,17516845108143239	2180	120	2180	-0,057197011116605245	2180	0	2180	0
2190	-0,0662765018982709	2190	120,00028143118392	2190	-0,17707768448815958	2190	120	2190	-0,057197011116605245	2190	0	2190	0
2200	-0,060544530928260516	2200	120,00049752726176	2200	-0,13872301003777815	2200	120	2200	-0,057197011116605245	2200	0	2200	0
2210	-0,057799149013032111	2210	119,99917193165781	2210	0,45940090223702318	2210	120	2210	-0,057197011116605245	2210	0	2210	0
2220	-0,0583351749373271	2220	120,0006063413413	2220	0,127635314560686	2220	120	2220	-0,057197011116605245	2220	0	2220	0
2230	-0,066410977713899075	2230	120,00102906953642	2230	0,14322005376788791	2230	120	2230	-0,057197011116605245	2230	0	2230	0
2240	-0,0683899240823528	2240	119,99902571348314	2240	-0,1310275594278596	2240	120	2240	-0,057197011116605245	2240	0	2240	0
2250	-0,061031880971808006	2250	120,00090644759554	2250	-0,20635981838462708	2250	120	2250	-0,057197011116605245	2250	0	2250	0
2260	-0,0655984722142512	2260	120,0015441535475	2260	-1,1108264828183849	2260	120	2260	-0,057197011116605245	2260	0	2260	0
2270	-0,056455297209341775	2270	119,99971700123865	2270	0,31673380669660439	2270	120	2270	-0,057197011116605245	2270	0	2270	0
2280	-0,056140499934413578	2280	119,99760939735859	2280	0,30839479606922093	2280	120	2280	-0,057197011116605245	2280	0	2280	0
2290	-0,051969883876743561	2290	120,00481020412954	2290	0,5363710016674571	2290	120	2290	-0,057197011116605245	2290	0	2290	0
2300	-0,071170006624494464	2300	120,00050518103114	2300	-0,87957425245918019	2300	120	2300	-0,057197011116605245	2300	0	2300	0
2310	-0,056398189967955613	2310	120,00269618422925	2310	0,32729300987321819	2310	120	2310	-0,057197011116605245	2310	0	2310	0
2320	-0,064131737775125278	2320	120,00014667955253	2320	-0,33002263884092387	2320	120	2320	-0,057197011116605245	2320	0	2320	0
2330	-0,051332771527330207	2330	119,9990032895149	2330	0,07755235200414233	2330	120	2330	-0,057197011116605245	2330	0	2330	0
2340	-0,064565815941672655	2340	119,9980935128101	2340	-0,40880762535779136	2340	120	2340	-0,057197011116605245	2340	0	2340	0
2350	-0,06035972979071718	2350	119,99806913624462	2350	-0,26942818445555849	2350	120	2350	-0,057197011116605245	2350	0	2350	0
2360	-0,060771400908766642	2360	120,0005783679235	2360	0,24743282783081	2360	120	2360	-0,057197011116605245	2360	0	2360	0
2370	-0,063672094202115517	2370	120,00085764362103	2370	0,20186111421092756	2370	120	2370	-0,057197011116605245	2370	0	2370	0
2380	-0,071875319726353928	2380	119,99759852160516	2380	-0,61706944964665977	2380	120	2380	-0,057197011116605245	2380	0	2380	0
2390	-0,064531542106745693	2390	119,99794899557155	2390	-0,12275637858719181	2390	120	2390	-0,057197011116605245	2390	0	2390	0
2400	-0,069770924394318354	2400	119,99538039078162	2400	-0,44264357599582993	2400	120	2400	-0,057197011116605245	2400	0	2400	0
2410	-0,056428345147506012	2410	119,99600658973279	2410	0,12687937687721146	2410	120	2410	-0,057197011116605245	2410	0	2410	0
2420	-0,06062103099627783	2420	119,99635238884896	2420	0,065555356155704542	2420	120	2420	-0,057197011116605245	2420	0	2420	0
2430	-0,065231150264399212	2430	119,99634463346941	2430	0,37390653785651162	2430	120	2430	-0,057197011116605245	2430	0	2430	0
2440	-0,0647421931534535	2440	119,99827112093416	2440	0,71181901739298425	2440	120	2440	-0,057197011116605245	2440	0	2440	0
2450	-0,057352935708486388	2450	120,00159032012908	2450	-0,029862796100599723	2450	120	2450	-0,057197011116605245	2450	0	2450	0
2460	-0,067207570490860388	2460	120,00065342614421	2460	-1,0081410786161129	2460	120	2460	-0,057197011116605245	2460	0	2460	0
2470	-0,065725032667766414	2470	119,99811523119118	2470	-0,46300895014980159	2470	120	2470	-0,057197011116605245	2470	0	2470	0
2480	-0,05773684397721815	2480	119,99802531480327	2480	-0,020926367837995133	2480	120	2480	-0,057197011116605245	2480	0	2480	0
2490	-0,066784344145882649	2490	119,99559960966255	2490	0,23727550036316911	2490	120	2490	-0,057197011116605245	2490	0	2490	0
2500	-0,05639653542603712	2500	119,99791865519399	2500	0,53145442670774057	2500	120	2500	-0,057197011116605245	2500	0	2500	0
2510	-0,064309276764739284	2510	120,00009440546633	2510	-0,07729883247393099	2510	120	2510	-0,057197011116605245	2510	0	2510	0
2520	-0,065339918965962432	2520	119,99850688362328	2520	-0,54377974839867593	2520	120	2520	-0,057197011116605245	2520	0	2520	0
2530	-0,060011179510844767	2530	119,99743338107871	2530	-0,33558935130542511	2530	120	2530	-0,057197011116605245	2530	0	2530	0
2540	-0,0616266612620965	2540	119,99773256510387	2540	-0,47802674453913641	2540	120	2540	-0,057197011116605245	2540	0	2540	0
2550	-0,063647466475243414	2550	119,99844725159993	2550	-0,39743432736446305	2550	120	2550	-0,057197011116605245	2550	0	2550	0
2560	-0,054412881336618618	2560	120,00346527997965	2560	1,1764132107180505	2560	120	2560	-0,057197011116605245	2560	0	2560	0
2570	-0,061377465202709855	2570	119,99975096523315	2570	0,24688927724838533	2570	120	2570	-0,057197011116605245	2570	0	2570	0
2580	-0,0608133457744906	2580	120,00017359552992	2580	-0,1974026009560895	2580	120	2580	-0,057197011116605245	2580	0	2580	0
2590	-0,056812225612458814	2590	120,00122952187705	2590	-0,25615326218615186	2590	120	2590	-0,057197011116605245	2590	0	2590	0
2600	-0,0633718431323141	2600	119,99957982023626	2600	-0,350762043537028	2600	120	2600	-0,057197011116605245	2600	0	2600	0
2610	-0,06128933580013475	2610	120,00049833890317	2610	0,12722260128997318	2610	120	2610	-0,057197011116605245	2610	0	2610	0
2620	-0,05680096333335416	2620	120,00034813090954	2620	0,056979028223243855	2620	120	2620	-0,057197011116605245	2620	0	2620	0
2630	-0,059938454133185937	2630	120,00140939539766	2630	0,39362519364143267	2630	120	2630	-0,057197011116605245	2630	0	2630	0
2640	-0,059297317891986688	2640	119,99965765317585	2640	-0,229890898166637	2640	120	2640	-0,057197011116605245	2640	0	2640	0
2650	-0,056776647370045868	2650	120,00182606377446	2650	0,21547718216183331	2650	120	2650	-0,057197011116605245	2650	0	2650	0
2660	-0,065040899001829924	2660	119,99968807433474	2660	0,23828465708224766	2660	120	2660	-0,057197011116605245	2660	0	2660	0
2670	-0,062459394945941348	2670	119,99938124382368	2670	-0,072941174493955957	2670	120	2670	-0,057197011116605245	2670	0	2670	0
2680	-0,06458648962592009	2680	119,99994216965828	2680	-0,212986685967762	2680	120	2680	-0,057197011116605245	2680	0	2680	0
2690	-0,071257312370489961	2690	119,99795435651286	2690	-0,28659917465512225	2690	120	2690	-0,057197011116605245	2690	0	2690	0
2700	-0,051975272266469107	2700	120,00196735764961	2700	0,36525518905944404	2700	120	2700	-0,057197011116605245	2700	0	2700	0
2710	-0,068825200825641739	2710	119,99845316839563	2710	0,20265979249267735	2710	120	2710	-0,057197011116605245	2710	0	2710	0
2720	-0,055248538612350323	2720	119,99646152807586	2720	-0,2934913949445398	2720	120	2720	-0,057197011116605245	2720	0	2720	0
2730	-0,052314080280183264	2730	119,99530515163698	2730	0,44849073818523832	2730	120	2730	-0,057197011116605245	2730	0	2730	0
2740	-0,046788910770385175	2740	119,99303132792942	2740	-0,41836830802692371	2740	120	2740	-0,057197011116605245	2740	0	2740	0
2750	-0,031528943882529518	2750	119,99735092049204	2750	0,097765859098169677	2750	120	2750	-0,057197011116605245	2750	0	2750	0
2760	-0,033926895883398214	2760	119,99907119753688	2760	0,45916704576528267	2760	120	2760	-0,057197011116605245	2760	0	2760	0
2770	-0,034551650706184295	2770	120,00308431238416	2770	0,13701501373415065	2770	120	2770	-0,057197011116605245	2770	0	2770	0
2780	-0,046228575823771309	2780	120,00544972778937	2780	0,82339168237976268	2780	120	2780	-0,057197011116605245	2780	0	2780	0
2790	-0,0460655612905346	2790	120,00526000953551	2790	-0,13338166794482387	2790	120	2790	-0,057197011116605245	2790	0	2790	0
2800	-0,041569463030092242	2800	120,00621995660669	2800	0,24771385601713217	2800	120	2800	-0,057197011116605245	2800	0	2800	0
2810	-0,046073144496829546	2810	120,00738565158527	2810	0,26447837957020714	2810	120	2810	-0,057197011116605245	2810	0	2810	0
2820	-0,051973304599890441	2820	120,00269711032294	2820	-0,55188465135875431	2820	120	2820	-0,057197011116605245	2820	0	2820	0
2830	-0,056197567744196188	2830	120,00024372592527	2830	-0,52545907505390188	2830	120	2830	-0,057197011116605245	2830	0	2830	0
2840	-0,05210135766534852	2840	120,00165307778163	2840	-0,5097888227686368	2840	120	2840	-0,057197011116605245	2840	0	2840	0
2850	-0,040134407166685947	2850	120,00243341440165	2850	0,47839082459655535	2850	120	2850	-0,057197011116605245	2850	0	2850	0
2860	-0,055513128654502357	2860	119,99916128544781	2860	-0,06164203948825607	2860	120	2860	-0,057197011116605245	2860	0	2860	0
2870	-0,048787014009873036	2870	119,99802860790541	2870	-0,75477448015702331	2870	120	2870	-0,057197011116605245	2870	0	2870	0
2880	-0,058194180285239594	2880	119,99952314483352	2880	0,72953875340598107	2880	120	2880	-0,057197011116605245	2880	0	2880	0
2890	-0,053364139296523283	2890	119,99820524026561	2890	-0,5197239999231511	2890	120	2890	-0,057197011116605245	2890	0	2890	0
2900	-0,055877798194364815	2900	120,00057024939802	2900	0,30319688977667764	2900	120	2900	-0,057197011116605245	2900	0	2900	0
2910	-0,054733748557461888	2910	120,00031014550714	2910	-0,46874731772732892	2910	120	2910	-0,057197011116605245	2910	0	2910	0
2920	-0,048134360172281593	2920	120,00089670848458	2920	0,717878558578854	2920	120	2920	-0,057197011116605245	2920	0	2920	0
2930	-0,040888088473344471	2930	120,00519984521665	2930	0,36272985220680143	2930	120	2930	-0,057197011116605245	2930	0	2930	0
2940	-0,055753078841472944	2940	120,00181241957311	2940	0,44779641073469345	2940	120	2940	-0,057197011116605245	2940	0	2940	0
2950	-0,0572470948362479	2950	119,99816745868783	2950	-1,2343938784497324	2950	120	2950	-0,057197011116605245	2950	0	2950	0
2960	-0,060722498584082074	2960	120,00256690893518	2960	0,43315452148197942	2960	120	2960	-0,057197011116605245	2960	0	2960	0
2970	-0,057396181801553904	2970	119,99839504267833	2970	-0,4264110691389098	2970	120	2970	-0,057197011116605245	2970	0	2970	0
2980	-0,048253130872130005	2980	120,0032690941927	2980	0,23188991207468734	2980	120	2980	-0,057197011116605245	2980	0	2980	0
2990	-0,055410531749079769	2990	120,00006504654228	2990	0,61623464784538828	2990	120	2990	-0,057197011116605245	2990	0	2990	0
3000	-0,052685878026499808	3000	120,00073029992304	3000	0,27439697756171949	3000	120	3000	-0,057197011116605245	3000	0	3000	0
3010	-0,045791887240607142	3010	120,00262392498668	3010	0,692062767645764	3010	120	3010	-0,057197011116605245	3010	0	3010	0
3020	-0,052527152319012234	3020	119,99875577987989	3020	-0,62773615677338	3020	120	3020	-0,057197011116605245	3020	0	3020	0
3030	-0,050834662826011887	3030	120,00306537708175	3030	-0,037905788094774295	3030	120	3030	-0,057197011116605245	3030	0	3030	0
3040	-0,057178052688338039	3040	119,99951927828491	3040	0,10070860802369222	3040	120	3040	-0,057197011116605245	3040	0	3040	0
3050	-0,066259661271410183	3050	119,99844166393798	3050	-0,95561831748812054	3050	120	3050	-0,057197011116605245	3050	0	3050	0
3060	-0,053076952916850557	3060	120,00377528659975	3060	0,55174003635132451	3060	120	3060	-0,057197011116605245	3060	0	3060	0
3070	-0,047572849404131	3070	119,99896405010861	3070	-0,29322977529059391	3070	120	3070	-0,057197011116605245	3070	0	3070	0
3080	-0,046659657002932939	3080	120,00366065711118	3080	0,33527359637876125	3080	120	3080	-0,057197011116605245	3080	0	3080	0
3090	-0,049047875201364978	3090	120,00109763955078	3090	-0,35391966957254672	3090	120	3090	-0,057197011116605245	3090	0	3090	0
3100	-0,065977593988048575	3100	119,99982140518524	3100	-0,74255595899730742	3100	120	3100	-0,057197011116605245	3100	0	3100	0
3110	-0,0644291707987789	3110	119,99804783767172	3110	-0,6527492017850326	3110	120	3110	-0,057197011116605245	3110	0	3110	0
3120	-0,049776544553321173	3120	119,99845049537933	3120	-0,32826426872493147	3120	120	3120	-0,057197011116605245	3120	0	3120	0
3130	-0,050550187579246911	3130	119,99985627433411	3130	0,65093203362536445	3130	120	3130	-0,057197011116605245	3130	0	3130	0
3140	-0,0499364805556809	3140	120,00229369578476	3140	0,67793427403170181	3140	120	3140	-0,057197011116605245	3140	0	3140	0
3150	-0,043487394139711241	3150	120,00442003246523	3150	0,77700545680738664	3150	120	3150	-0,057197011116605245	3150	0	3150	0
3160	-0,053009657586140332	3160	120,00472556919713	3160	-0,27544626671346772	3160	120	3160	-0,057197011116605245	3160	0	3160	0
3170	-0,054546553565452807	3170	119,99855811108508	3170	0,072660831197989	3170	120	3170	-0,057197011116605245	3170	0	3170	0
3180	-0,051298099110567721	3180	120,0027424524512	3180	0,93940468636923291	3180	120	3180	-0,057197011116605245	3180	0	3180	0
3190	-0,0647693214753825	3190	119,99564777212468	3190	-0,5286686801468824	3190	120	3190	-0,057197011116605245	3190	0	3190	0
3200	-0,055969594462982691	3200	119,99828183767265	3200	0,19708179618466809	3200	120	3200	-0,057197011116605245	3200	0	3200	0
3210	-0,053696818807465553	3210	120,00240477847676	3210	0,33453245993651809	3210	120	3210	-0,057197011116605245	3210	0	3210	0
3220	-0,058471029067815962	3220	119,99735468638765	3220	-0,30082187524378268	3220	120	3220	-0,057197011116605245	3220	0	3220	0
3230	-0,066708824633981326	3230	119,99921510038153	3230	-0,603214831150695	3230	120	3230	-0,057197011116605245	3230	0	3230	0
3240	-0,042202134541372241	3240	120,00307606463773	3240	0,21220475129239005	3240	120	3240	-0,057197011116605245	3240	0	3240	0
3250	-0,055877271711143	3250	120,00227495248176	3250	0,73500972881909177	3250	120	3250	-0,057197011116605245	3250	0	3250	0
3260	-0,052396861091899616	3260	120,00165319102649	3260	-0,072975881230149531	3260	120	3260	-0,057197011116605245	3260	0	3260	0
3270	-0,064474300430531969	3270	119,99725135593157	3270	-1,2946953044125695	3270	120	3270	-0,057197011116605245	3270	0	3270	0
3280	-0,061946577352060682	3280	120,00107628294531	3280	0,033426210697156317	3280	120	3280	-0,057197011116605245	3280	0	3280	0
3290	-0,064715396111715062	3290	119,9985594859113	3290	-1,1885388257220131	3290	120	3290	-0,057197011116605245	3290	0	3290	0
3300	-0,054202438129449131	3300	120,00060740273034	3300	0,13435700489803162	3300	120	3300	-0,057197011116605245	3300	0	3300	0
3310	-0,054350027696938724	3310	120,00144435159383	3310	-0,70767945304055169	3310	120	3310	-0,057197011116605245	3310	0	3310	0
3320	-0,063108815195468418	3320	119,99742279831487	3320	-1,2850781967544813	3320	120	3320	-0,057197011116605245	3320	0	3320	0
3330	-0,055639556429242357	3330	119,99921971527084	3330	0,10674716845738091	3330	120	3330	-0,057197011116605245	3330	0	3330	0
3340	-0,044559311897790076	3340	120,0032194604977	3340	0,23785926254070738	3340	120	3340	-0,057197011116605245	3340	0	3340	0
3350	-0,04675805664146792	3350	120,00353096825384	3350	0,32159965660194667	3350	120	3350	-0,057197011116605245	3350	0	3350	0
3360	-0,053657207801337259	3360	120,00149713570511	3360	1,1039833026459345	3360	120	3360	-0,057197011116605245	3360	0	3360	0
3370	-0,058376402797955418	3370	119,99892521602013	3370	-0,77029343350512658	3370	120	3370	-0,057197011116605245	3370	0	3370	0
3380	-0,053148879862014574	3380	120,00062003664478	3380	0,17018867081018158	3380	120	3380	-0,057197011116605245	3380	0	3380	0
3390	-0,044837971228628752	3390	120,00411189419634	3390	1,1491546734996774	3390	120	3390	-0,057197011116605245	3390	0	3390	0
3400	-0,054639867353112409	3400	120,00121967997613	3400	-1,4217262121460579	3400	120	3400	-0,057197011116605245	3400	0	3400	0
3410	-0,0626625194559312	3410	120,00169576573241	3410	-0,77023786149549855	3410	120	3410	-0,057197011116605245	3410	0	3410	0
3420	-0,061363470190168717	3420	119,99838087994102	3420	-0,87673426650019581	3420	120	3420	-0,057197011116605245	3420	0	3420	0
3430	-0,04537476834569381	3430	120,00248090943849	3430	-0,23913695951757774	3430	120	3430	-0,057197011116605245	3430	0	3430	0
3440	-0,050860166634715556	3440	120,00385169764991	3440	1,2273230688212125	3440	120	3440	-0,057197011116605245	3440	0	3440	0
3450	-0,042817347404427178	3450	120,00204720215294	3450	0,44147730244977185	3450	120	3450	-0,057197011116605245	3450	0	3450	0
3460	-0,059170050123702619	3460	119,99843808852866	3460	-0,20951308079071795	3460	120	3460	-0,057197011116605245	3460	0	3460	0
3470	-0,064889649489793338	3470	119,99601635272651	3470	-0,79588248096783454	3470	120	3470	-0,057197011116605245	3470	0	3470	0
3480	-0,059869667060860568	3480	120,00147398683785	3480	-1,1220622441690813	3480	120	3480	-0,057197011116605245	3480	0	3480	0
3490	-0,0576565850347122	3490	120,00301353452315	3490	0,73238586201813516	3490	120	3490	-0,057197011116605245	3490	0	3490	0
3500	-0,044100148754768045	3500	120,00206893868051	3500	0,23169704334607127	3500	120	3500	-0,057197011116605245	3500	0	3500	0
3510	-0,055308577010105046	3510	120,00141136834394	3510	0,10343896205756292	3510	120	3510	-0,057197011116605245	3510	0	3510	0
3520	-0,048845155746134	3520	120,00298193717929	3520	-0,65605685545929515	3520	120	3520	-0,057197011116605245	3520	0	3520	0
3530	-0,060848610869033273	3530	120,0016501489191	3530	0,30687088530649953	3530	120	3530	-0,057197011116605245	3530	0	3530	0
3540	-0,050156634879749543	3540	120,00001259636093	3540	0,070720855467579544	3540	120	3540	-0,057197011116605245	3540	0	3540	0
3550	-0,050719833911434226	3550	120,00025803207268	3550	-0,4846604830614244	3550	120	3550	-0,057197011116605245	3550	0	3550	0
3560	-0,071077794155800025	3560	119,99397707254221	3560	-0,73989457047789609	3560	120	3560	-0,057197011116605245	3560	0	3560	0
3570	-0,047584461862508934	3570	120,00133936730308	3570	0,81521930085611927	3570	120	3570	-0,057197011116605245	3570	0	3570	0
3580	-0,046419037617969422	3580	120,00379805307463	3580	0,97195936766163615	3580	120	3580	-0,057197011116605245	3580	0	3580	0
3590	-0,051639735066821589	3590	120,00180026444804	3590	1,7719004003741055	3590	120	3590	-0,057197011116605245	3590	0	3590	0
3600	-0,0536932383467441	3600	119,99866409380493	3600	-1,3874213634986736	3600	120	3600	-0,057197011116605245	3600	0	3600	0
3610	-0,053657994066529061	3610	120,00117972750584	3610	0,548321274506788	3610	120	3610	-0,057197011116605245	3610	0	3610	0
3620	-0,048183003335635993	3620	120,00121846086442	3620	-0,015663032228102253	3620	120	3620	-0,057197011116605245	3620	0	3620	0
3630	-0,0631769759894944	3630	120,00078787007038	3630	0,29672336118677212	3630	120	3630	-0,057197011116605245	3630	0	3630	0
3640	-0,047504594684726974	3640	120,00342281952737	3640	-0,048124086041529568	3640	120	3640	-0,057197011116605245	3640	0	3640	0
3650	-0,067988387520336244	3650	119,99906077186684	3650	-1,0747802357639753	3650	120	3650	-0,057197011116605245	3650	0	3650	0
3660	-0,04509579157481	3660	120,00245511480313	3660	0,065632681489365408	3660	120	3660	-0,057197011116605245	3660	0	3660	0
3670	-0,062177736022711559	3670	119,998749765197	3670	-0,702078345906072	3670	120	3670	-0,057197011116605245	3670	0	3670	0
3680	-0,065696759870483179	3680	119,99909613759168	3680	-0,28013945559493786	3680	120	3680	-0,057197011116605245	3680	0	3680	0
3690	-0,052114248957096349	3690	119,99886553369909	3690	-0,4310554555895546	3690	120	3690	-0,057197011116605245	3690	0	3690	0
3700	-0,049181549078525205	3700	120,00014779007063	3700	0,19473508359969161	3700	120	3700	-0,057197011116605245	3700	0	3700	0
3710	-0,049616568941373833	3710	120,00329128113586	3710	0,48102471912699363	3710	120	3710	-0,057197011116605245	3710	0	3710	0
3720	-0,050369767219154989	3720	119,99869003888914	3720	-0,30828768595711642	3720	120	3720	-0,057197011116605245	3720	0	3720	0
3730	-0,059335983116559993	3730	120,00007935124143	3730	-0,63005516529932526	3730	120	3730	-0,057197011116605245	3730	0	3730	0
3740	-0,044337182101723827	3740	120,00453743795654	3740	0,81244606031335742	3740	120	3740	-0,057197011116605245	3740	0	3740	0
3750	-0,061327472629225339	3750	119,99944899999312	3750	-1,0426601179920707	3750	120	3750	-0,057197011116605245	3750	0	3750	0
3760	-0,052389224911267823	3760	120,00199626083929	3760	-0,60754061140964155	3760	120	3760	-0,057197011116605245	3760	0	3760	0
3770	-0,048897105888214144	3770	120,00182440364792	3770	0,31402350059134421	3770	120	3770	-0,057197011116605245	3770	0	3770	0
3780	-0,059990334863250387	3780	120,00195436714132	3780	0,20442496382631181	3780	120	3780	-0,057197011116605245	3780	0	3780	0
3790	-0,058330460008371887	3790	119,99980405473106	3790	0,11958825849792049	3790	120	3790	-0,057197011116605245	3790	0	3790	0
3800	-0,067806794556138278	3800	119,99841705577316	3800	-1,3201874707691599	3800	120	3800	-0,057197011116605245	3800	0	3800	0
3810	-0,054675507452104193	3810	120,00236034211703	3810	-0,38723176114041569	3810	120	3810	-0,057197011116605245	3810	0	3810	0
3820	-0,054909748307267178	3820	119,99954385978819	3820	-0,00042550698914106677	3820	120	3820	-0,057197011116605245	3820	0	3820	0
3830	-0,057396477697921278	3830	120,00213118596876	3830	0,27680261224623659	3830	120	3830	-0,057197011116605245	3830	0	3830	0
3840	-0,059323089365011447	3840	120,00028198206459	3840	0,49453879775787452	3840	120	3840	-0,057197011116605245	3840	0	3840	0
3850	-0,046813709309832786	3850	120,00144436345128	3850	0,10703857114145279	3850	120	3850	-0,057197011116605245	3850	0	3850	0
3860	-0,063506070096334175	3860	120,00041538274282	3860	-0,64455187236075651	3860	120	3860	-0,057197011116605245	3860	0	3860	0
3870	-0,058724008800530712	3870	119,99809869707156	3870	0,016513246304248996	3870	120	3870	-0,057197011116605245	3870	0	3870	0
3880	-0,044253132300229731	3880	120,0057404544891	3880	1,3186413327716047	3880	120	3880	-0,057197011116605245	3880	0	3880	0
3890	-0,06472711913515522	3890	119,99981494928329	3890	-0,02089148320181785	3890	120	3890	-0,057197011116605245	3890	0	3890	0
3900	-0,05537219909965381	3900	119,99981324375958	3900	-0,50458656647494093	3900	120	3900	-0,057197011116605245	3900	0	3900	0
3910	-0,051759508025926673	3910	120,00230871611646	3910	0,87001563758623668	3910	120	3910	-0,057197011116605245	3910	0	3910	0
3920	-0,061333160394546962	3920	119,99986678735421	3920	-0,2688419096537546	3920	120	3920	-0,057197011116605245	3920	0	3920	0
3930	-0,048307659687709496	3930	120,00137317799506	3930	-0,039497575892031511	3930	120	3930	-0,057197011116605245	3930	0	3930	0
3940	-0,057647557750532354	3940	119,9988762452241	3940	-0,37046439054723956	3940	120	3940	-0,057197011116605245	3940	0	3940	0
3950	-0,051490575755680855	3950	119,99945445771651	3950	-0,50472564338090509	3950	120	3950	-0,057197011116605245	3950	0	3950	0
3960	-0,068816518935495022	3960	119,99838243410369	3960	-0,7883525208164035	3960	120	3960	-0,057197011116605245	3960	0	3960	0
3970	-0,048012787070257253	3970	120,0025562062843	3970	-0,72381993648126808	3970	120	3970	-0,057197011116605245	3970	0	3970	0
3980	-0,051550124857836888	3980	120,00209202891682	3980	0,16945586100217436	3980	120	3980	-0,057197011116605245	3980	0	3980	0
3990	-0,069325562269194785	3990	119,99764103016939	3990	-0,48762067953918303	3990	120	3990	-0,057197011116605245	3990	0	3990	0
4000	-0,057198924320782864	4000	120,00089372181716	4000	0,38073780725061734	4000	120	4000	-0,057197011116605245	4000	0	4000	0
4010	-0,056577546628508335	4010	119,99967843446265	4010	-0,80281121760944307	4010	120	4010	-0,057197011116605245	4010	0	4010	0
4020	-0,045518679688205041	4020	120,00218311757688	4020	-0,12173563784922092	4020	120,00338097199848	4020	-0,039523268287522284	4020	0	4020	0
4030	-0,050233471169064979	4030	120,00194292488676	4030	-0,063446485468688779	4030	120,00338097199848	4030	-0,039523268287522284	4030	0	4030	0
4040	-0,055210094883640586	4040	119,99786778143485	4040	-0,75634239102986367	4040	120,00338097199848	4040	-0,039523268287522284	4040	0	4040	0
4050	-0,013925130178588908	4050	120,00836038674505	4050	0,93212644192585969	4050	120,00338097199848	4050	-0,039523268287522284	4050	0	4050	0
4060	-0,04364850763791437	4060	120,00257013990338	4060	-0,45039179971579968	4060	120,00338097199848	4060	-0,039523268287522284	4060	0	4060	0
4070	-0,038974421524465327	4070	120,00402173637423	4070	-0,36793436200074892	4070	120,00338097199848	4070	-0,039523268287522284	4070	0	4070	0
4080	-0,045577753246284214	4080	120,00443030997144	4080	0,091336146035501525	4080	120,00338097199848	4080	-0,039523268287522284	4080	0	4080	0
4090	-0,033382185057898563	4090	120,0054615794802	4090	0,041561741250500078	4090	120,00338097199848	4090	-0,039523268287522284	4090	0	4090	0
4100	-0,041970778918032546	4100	120,00315824202215	4100	-0,44109998841715364	4100	120,00338097199848	4100	-0,039523268287522284	4100	0	4100	0
4110	-0,049633689781342277	4110	120,0028279501561	4110	-0,33463061975233138	4110	120,00338097199848	4110	-0,039523268287522284	4110	0	4110	0
4120	-0,030213587062983584	4120	120,00324109878524	4120	0,16330708431973268	4120	120,00338097199848	4120	-0,039523268287522284	4120	0	4120	0
4130	-0,04113339068492488	4130	120,00202442911549	4130	0,22182034015054414	4130	120,00338097199848	4130	-0,039523268287522284	4130	0	4130	0
4140	-0,04048496208831006	4140	120,00242037312323	4140	0,97322257850824456	4140	120,00338097199848	4140	-0,039523268287522284	4140	0	4140	0
4150	-0,045042173213078379	4150	120,00134891709273	4150	-0,6497846633649802	4150	120,00338097199848	4150	-0,039523268287522284	4150	0	4150	0
4160	-0,0265758759501778	4160	120,00647627926074	4160	0,023907555195386898	4160	120,00338097199848	4160	-0,039523268287522284	4160	0	4160	0
4170	-0,034783033544584369	4170	120,00259578324747	4170	-0,37646869382053305	4170	120,00338097199848	4170	-0,039523268287522284	4170	0	4170	0
4180	-0,047739843627027809	4180	120,00479107145262	4180	-0,35840514096627019	4180	120,00338097199848	4180	-0,039523268287522284	4180	0	4180	0
4190	-0,028323621357395273	4190	120,00664636363641	4190	0,14606600992640617	4190	120,00338097199848	4190	-0,039523268287522284	4190	0	4190	0
4200	-0,037419494811396746	4200	120,00363229619531	4200	0,18386904831731821	4200	120,00338097199848	4200	-0,039523268287522284	4200	0	4200	0
4210	-0,040204301762424455	4210	120,00534453313232	4210	0,10099860164599522	4210	120,00338097199848	4210	-0,039523268287522284	4210	0	4210	0
4220	-0,03076115890046938	4220	120,00325695986867	4220	0,19885878100277987	4220	120,00338097199848	4220	-0,039523268287522284	4220	0	4220	0
4230	-0,032045382936979033	4230	120,00601377981906	4230	0,7753252027171722	4230	120,00338097199848	4230	-0,039523268287522284	4230	0	4230	0
4240	-0,041468859708646007	4240	120,00204579326206	4240	-0,70327808478700027	4240	120,00338097199848	4240	-0,039523268287522284	4240	0	4240	0
4250	-0,039076822880956444	4250	120,00323110267415	4250	-0,63250232306934662	4250	120,00338097199848	4250	-0,039523268287522284	4250	0	4250	0
4260	-0,049810866889920737	4260	119,99991038292623	4260	-0,33209707712992753	4260	120,00338097199848	4260	-0,039523268287522284	4260	0	4260	0
4270	-0,044648624509744009	4270	120,00262104674069	4270	0,059209062538569335	4270	120,00338097199848	4270	-0,039523268287522284	4270	0	4270	0
4280	-0,051311898054526905	4280	120,00339106922236	4280	-0,54908997154371153	4280	120,00338097199848	4280	-0,039523268287522284	4280	0	4280	0
4290	-0,036191235527644985	4290	120,00112216206809	4290	0,050961649652205565	4290	120,00338097199848	4290	-0,039523268287522284	4290	0	4290	0
4300	-0,040211207340348949	4300	120,00478997653831	4300	0,20228007270263521	4300	120,00338097199848	4300	-0,039523268287522284	4300	0	4300	0
4310	-0,041787524763293282	4310	120,00442347238204	4310	0,64582964071947457	4310	120,00338097199848	4310	-0,039523268287522284	4310	0	4310	0
4320	-0,030993856116058052	4320	120,00544452618303	4320	0,033793815361758517	4320	120,00338097199848	4320	-0,039523268287522284	4320	0	4320	0
4330	-0,03846556803169663	4330	120,00556813703602	4330	-0,44701080896701989	4330	120,00338097199848	4330	-0,039523268287522284	4330	0	4330	0
4340	-0,037583403997610024	4340	120,006757259454	4340	0,382550710734344	4340	120,00338097199848	4340	-0,039523268287522284	4340	0	4340	0
4350	-0,050880918056153246	4350	120,00109665164813	4350	-0,93895938634862741	4350	120,00338097199848	4350	-0,039523268287522284	4350	0	4350	0
4360	-0,037317065413140373	4360	120,0038625288984	4360	0,039295267599883665	4360	120,00338097199848	4360	-0,039523268287522284	4360	0	4360	0
4370	-0,033574849507669979	4370	120,00251967309985	4370	0,1583737733126549	4370	120,00338097199848	4370	-0,039523268287522284	4370	0	4370	0
4380	-0,04845492281985915	4380	119,99990952103551	4380	-0,468979208471885	4380	120,00338097199848	4380	-0,039523268287522284	4380	0	4380	0
4390	-0,033620831254213029	4390	120,00401762097449	4390	0,98012531668129088	4390	120,00338097199848	4390	-0,039523268287522284	4390	0	4390	0
4400	-0,043899776544961848	4400	120,00428659276578	4400	-0,61264158906330879	4400	120,00338097199848	4400	-0,039523268287522284	4400	0	4400	0
4410	-0,044456214682324385	4410	120,00266198562467	4410	-0,21434489858921871	4410	120,00338097199848	4410	-0,039523268287522284	4410	0	4410	0
4420	-0,028110534019763735	4420	120,00494094912932	4420	0,55105314045028309	4420	120,00338097199848	4420	-0,039523268287522284	4420	0	4420	0
4430	-0,04364889564907469	4430	120,00380497711423	4430	-0,33480598247580873	4430	120,00338097199848	4430	-0,039523268287522284	4430	0	4430	0
4440	-0,040834702376753761	4440	120,00428713484754	4440	-0,049238000754057321	4440	120,00338097199848	4440	-0,039523268287522284	4440	0	4440	0
4450	-0,042636594338585063	4450	120,00283684516217	4450	0,28984962656900709	4450	120,00338097199848	4450	-0,039523268287522284	4450	0	4450	0
4460	-0,043135601036733043	4460	120,00389048851011	4460	0,25394582785518111	4460	120,00338097199848	4460	-0,039523268287522284	4460	0	4460	0
4470	-0,028014165682580288	4470	120,00581412287053	4470	0,58429582388634427	4470	120,00338097199848	4470	-0,039523268287522284	4470	0	4470	0
4480	-0,029882507767612154	4480	120,00612148578004	4480	0,098278512879756419	4480	120,00338097199848	4480	-0,039523268287522284	4480	0	4480	0
4490	-0,059828416617437978	4490	119,99720647303829	4490	-1,691153913377206	4490	120,00338097199848	4490	-0,039523268287522284	4490	0	4490	0
4500	-0,045918788544097235	4500	120,00172718440439	4500	-0,39688952933439481	4500	120,00338097199848	4500	-0,039523268287522284	4500	0	4500	0
4510	-0,027699472263358851	4510	120,00655180344273	4510	0,86306469207254222	4510	120,00338097199848	4510	-0,039523268287522284	4510	0	4510	0
4520	-0,031019137420842405	4520	120,00429134471975	4520	0,66890986045381007	4520	120,00338097199848	4520	-0,039523268287522284	4520	0	4520	0
4530	-0,039249934723188488	4530	120,00251848839191	4530	-0,350185124677046	4530	120,00338097199848	4530	-0,039523268287522284	4530	0	4530	0
4540	-0,041412330883127624	4540	120,0033660024839	4540	-0,58833459134685229	4540	120,00338097199848	4540	-0,039523268287522284	4540	0	4540	0
4550	-0,05228834991409461	4550	119,99980305508416	4550	-0,70670375199127311	4550	120,00338097199848	4550	-0,039523268287522284	4550	0	4550	0
4560	-0,056466265447541422	4560	120,00071424377626	4560	-0,52107162010873365	4560	120,00338097199848	4560	-0,039523268287522284	4560	0	4560	0
4570	-0,036594484001498742	4570	120,00402127218183	4570	0,46925907352115925	4570	120,00338097199848	4570	-0,039523268287522284	4570	0	4570	0
4580	-0,032782843566628035	4580	120,00591781507218	4580	1,0113564105543824	4580	120,00338097199848	4580	-0,039523268287522284	4580	0	4580	0
4590	-0,013312529501599831	4590	120,00840108988543	4590	1,4496712889891077	4590	120,00338097199848	4590	-0,039523268287522284	4590	0	4590	0
4600	-0,053478972497103393	4600	120,00045609644333	4600	-1,0196897467569699	4600	120,00338097199848	4600	-0,039523268287522284	4600	0	4600	0
4610	-0,058782178893012405	4610	120,00080312621064	4610	-0,50426174403501478	4610	120,00338097199848	4610	-0,039523268287522284	4610	0	4610	0
4620	-0,035386563826274885	4620	120,00441903618327	4620	-0,12293607759976588	4620	120,00338097199848	4620	-0,039523268287522284	4620	0	4620	0
4630	-0,026871402611686974	4630	120,00476204562706	4630	-0,028829863926856963	4630	120,00338097199848	4630	-0,039523268287522284	4630	0	4630	0
4640	-0,041965426673984112	4640	119,99971002724573	4640	-1,0866226135570847	4640	120,00338097199848	4640	-0,039523268287522284	4640	0	4640	0
4650	-0,0385772772090354	4650	120,00393265845084	4650	-0,0722286167983199	4650	120,00338097199848	4650	-0,039523268287522284	4650	0	4650	0
4660	-0,051800425952319977	4660	120,00078705823242	4660	0,030865994644474815	4660	120,00338097199848	4660	-0,039523268287522284	4660	0	4660	0
4670	-0,0367393398925728	4670	120,00318507717864	4670	0,57678056562033608	4670	120,00338097199848	4670	-0,039523268287522284	4670	0	4670	0
4680	-0,03950551415933215	4680	120,00249538893029	4680	0,32532153216094323	4680	120,00338097199848	4680	-0,039523268287522284	4680	0	4680	0
4690	-0,044374290385440524	4690	120,00236042153296	4690	-0,81949812227527774	4690	120,00338097199848	4690	-0,039523268287522284	4690	0	4690	0
4700	-0,022853065088063455	4700	120,00751036688911	4700	1,0583976741278507	4700	120,00338097199848	4700	-0,039523268287522284	4700	0	4700	0
4710	-0,039178603672203646	4710	120,00489025910098	4710	0,44890604816191804	4710	120,00338097199848	4710	-0,039523268287522284	4710	0	4710	0
4720	-0,048065661307092437	4720	119,99905318879557	4720	-1,6699484355841847	4720	120,00338097199848	4720	-0,039523268287522284	4720	0	4720	0
4730	-0,056664838826840758	4730	120,00033888089185	4730	-0,79559958546606324	4730	120,00338097199848	4730	-0,039523268287522284	4730	0	4730	0
4740	-0,042437053052032943	4740	120,00168367265718	4740	-0,513317006985972	4740	120,00338097199848	4740	-0,039523268287522284	4740	0	4740	0
4750	-0,043818161240893605	4750	120,00011303152486	4750	-0,28583121534408928	4750	120,00338097199848	4750	-0,039523268287522284	4750	0	4750	0
4760	-0,038693633244354445	4760	120,00228079902131	4760	-0,90624980536888344	4760	120,00338097199848	4760	-0,039523268287522284	4760	0	4760	0
4770	-0,034773360260159314	4770	120,00271540195612	4770	-0,27734434719834011	4770	120,00338097199848	4770	-0,039523268287522284	4770	0	4770	0
4780	-0,046989015426479874	4780	120,00472628843318	4780	1,0761351082392443	4780	120,00338097199848	4780	-0,039523268287522284	4780	0	4780	0
4790	-0,040098091794292592	4790	120,00454922472062	4790	0,33757108789646095	4790	120,00338097199848	4790	-0,039523268287522284	4790	0	4790	0
4800	-0,03388013506079627	4800	120,00481118608606	4800	-0,017975797317527992	4800	120,00338097199848	4800	-0,039523268287522284	4800	0	4800	0
4810	-0,042306335740847648	4810	120,00491139653322	4810	0,32092692467731276	4810	120,00338097199848	4810	-0,039523268287522284	4810	0	4810	0
4820	-0,034185187702039717	4820	120,00514582656891	4820	0,14850508023608894	4820	120,00338097199848	4820	-0,039523268287522284	4820	0	4820	0
4830	-0,049300228270109388	4830	120,00119474659232	4830	-0,28558943737126319	4830	120,00338097199848	4830	-0,039523268287522284	4830	0	4830	0
4840	-0,036374330165394042	4840	119,99961766644945	4840	0,16311984301010507	4840	120,00338097199848	4840	-0,039523268287522284	4840	0	4840	0
4850	-0,040057536151633565	4850	120,0019971043573	4850	-0,192824402116877	4850	120,00338097199848	4850	-0,039523268287522284	4850	0	4850	0
4860	-0,036814833320512039	4860	120,00405527407881	4860	0,38128807360207989	4860	120,00338097199848	4860	-0,039523268287522284	4860	0	4860	0
4870	-0,048275817593429082	4870	120,00009673146498	4870	-0,033310146852620265	4870	120,00338097199848	4870	-0,039523268287522284	4870	0	4870	0
4880	-0,043224125721035317	4880	120,00259473089756	4880	-0,35269671257342794	4880	120,00338097199848	4880	-0,039523268287522284	4880	0	4880	0
4890	-0,041078087374931245	4890	120,00396124079083	4890	0,36690893921417539	4890	120,00338097199848	4890	-0,039523268287522284	4890	0	4890	0
4900	-0,034088726335500995	4900	120,00727450872115	4900	0,75688493595549666	4900	120,00338097199848	4900	-0,039523268287522284	4900	0	4900	0
4910	-0,039217772085626726	4910	120,00580934436168	4910	0,66571426919891219	4910	120,00338097199848	4910	-0,039523268287522284	4910	0	4910	0
4920	-0,0478100348514871	4920	120,00302510157199	4920	0,34065286473737094	4920	120,00338097199848	4920	-0,039523268287522284	4920	0	4920	0
4930	-0,038524776974171816	4930	120,00735174174658	4930	0,58076389446905219	4930	120,00338097199848	4930	-0,039523268287522284	4930	0	4930	0
4940	-0,027005372120358195	4940	120,00544794937999	4940	0,21264582630580031	4940	120,00338097199848	4940	-0,039523268287522284	4940	0	4940	0
4950	-0,041303524350632954	4950	120,00157473430339	4950	-0,0967058860180939	4950	120,00338097199848	4950	-0,039523268287522284	4950	0	4950	0
4960	-0,037435503964591318	4960	120,0036955366424	4960	0,9034486071645409	4960	120,00338097199848	4960	-0,039523268287522284	4960	0	4960	0
4970	-0,03734102845437353	4970	120,00272114346137	4970	-0,10404004105910955	4970	120,00338097199848	4970	-0,039523268287522284	4970	0	4970	0
4980	-0,04772925531265302	4980	120,00439269631984	4980	0,2036698819451348	4980	120,00338097199848	4980	-0,039523268287522284	4980	0	4980	0
4990	-0,032856792262168512	4990	120,00294293517976	4990	-0,5744858979431422	4990	120,00338097199848	4990	-0,039523268287522284	4990	0	4990	0
5000	-0,040879741760293312	5000	120,0019037312012	5000	-0,63919067177316369	5000	120,00338097199848	5000	-0,039523268287522284	5000	0	5000	0
5010	-0,042317345869474547	5010	120,00264540069344	5010	-0,19655570620358009	5010	120,00338097199848	5010	-0,039523268287522284	5010	0	5010	0
5020	-0,046091293517081654	5020	120,00091711114429	5020	-1,5757619048516951	5020	120,00338097199848	5020	-0,039523268287522284	5020	0	5020	0
5030	-0,040609638579988235	5030	120,00299215648873	5030	-0,053762815699977429	5030	120,00338097199848	5030	-0,039523268287522284	5030	0	5030	0
5040	-0,040680444627591357	5040	120,00402151465276	5040	-0,7776357549042725	5040	120,00338097199848	5040	-0,039523268287522284	5040	0	5040	0
5050	-0,028055642112512536	5050	120,00693527621684	5050	0,19719928350709354	5050	120,00338097199848	5050	-0,039523268287522284	5050	0	5050	0
5060	-0,027132593276769694	5060	120,00668920957392	5060	0,6828475698016454	5060	120,00338097199848	5060	-0,039523268287522284	5060	0	5060	0
5070	-0,036801257156461195	5070	120,00079850017434	5070	0,12106128784752698	5070	120,00338097199848	5070	-0,039523268287522284	5070	0	5070	0
5080	-0,034714877507208988	5080	120,00338384213329	5080	0,38952864596146725	5080	120,00338097199848	5080	-0,039523268287522284	5080	0	5080	0
5090	-0,049031859177627889	5090	120,00003643932035	5090	-0,14548868138121796	5090	120,00338097199848	5090	-0,039523268287522284	5090	0	5090	0
5100	-0,037244224040010383	5100	120,00328859289213	5100	0,3147137856463052	5100	120,00338097199848	5100	-0,039523268287522284	5100	0	5100	0
5110	-0,039220693767929041	5110	120,0044344564129	5110	-0,65939117559499838	5110	120,00338097199848	5110	-0,039523268287522284	5110	0	5110	0
5120	-0,038350475567631145	5120	120,00444734014214	5120	0,22549187507269083	5120	120,00338097199848	5120	-0,039523268287522284	5120	0	5120	0
5130	-0,031045469584860111	5130	120,0089999079521	5130	0,37935164467364235	5130	120,00338097199848	5130	-0,039523268287522284	5130	0	5130	0
5140	-0,045227145168667812	5140	120,00264803984939	5140	-1,1346747009119182	5140	120,00338097199848	5140	-0,039523268287522284	5140	0	5140	0
5150	-0,044271111950523058	5150	120,00044393915299	5150	-0,89438937008085784	5150	120,00338097199848	5150	-0,039523268287522284	5150	0	5150	0
5160	-0,039720765779233058	5160	120,0021193716926	5160	0,48944804660762864	5160	120,00338097199848	5160	-0,039523268287522284	5160	0	5160	0
5170	-0,0560643201981936	5170	119,99891189070431	5170	-0,89395588062698916	5170	120,00338097199848	5170	-0,039523268287522284	5170	0	5170	0
5180	-0,03554712744571658	5180	120,00391936290721	5180	-0,078894857977972271	5180	120,00338097199848	5180	-0,039523268287522284	5180	0	5180	0
5190	-0,030877553759768923	5190	120,00170102988484	5190	0,77631888154538764	5190	120,00338097199848	5190	-0,039523268287522284	5190	0	5190	0
5200	-0,036668495602473428	5200	120,00538427758613	5200	0,11553575316639912	5200	120,00338097199848	5200	-0,039523268287522284	5200	0	5200	0
5210	-0,0438047278325885	5210	120,00196013386245	5210	0,47339660118771643	5210	120,00338097199848	5210	-0,039523268287522284	5210	0	5210	0
5220	-0,0395069969208319	5220	120,00359570538628	5220	0,56220211286166344	5220	120,00338097199848	5220	-0,039523268287522284	5220	0	5220	0
5230	-0,0305097789039446	5230	120,00799832040893	5230	1,1282347313623806	5230	120,00338097199848	5230	-0,039523268287522284	5230	0	5230	0
5240	-0,035081706289834071	5240	120,00578440706921	5240	-0,94394585772584627	5240	120,00338097199848	5240	-0,039523268287522284	5240	0	5240	0
5250	-0,051627129325531727	5250	120,00239746239079	5250	-0,48486338608067991	5250	120,00338097199848	5250	-0,039523268287522284	5250	0	5250	0
5260	-0,042087376816439183	5260	120,00376468680148	5260	1,1790866017906765	5260	120,00338097199848	5260	-0,039523268287522284	5260	0	5260	0
5270	-0,032101413708474608	5270	120,00287302723788	5270	0,039792990422906405	5270	120,00338097199848	5270	-0,039523268287522284	5270	0	5270	0
5280	-0,034042090849836518	5280	120,00450637102981	5280	0,28325916874135071	5280	120,00338097199848	5280	-0,039523268287522284	5280	0	5280	0
5290	-0,055221280379223386	5290	119,99876572160784	5290	-0,83162714899191847	5290	120,00338097199848	5290	-0,039523268287522284	5290	0	5290	0
5300	-0,042349773556217558	5300	120,00415054084492	5300	1,0679756827984432	5300	120,00338097199848	5300	-0,039523268287522284	5300	0	5300	0
5310	-0,040947773827809425	5310	120,00285699725998	5310	-0,22356525558014034	5310	120,00338097199848	5310	-0,039523268287522284	5310	0	5310	0
5320	-0,050494788893389944	5320	120,00213538693757	5320	-0,961934267546312	5320	120,00338097199848	5320	-0,039523268287522284	5320	0	5320	0
5330	-0,037631803519924935	5330	120,00038331644927	5330	0,86480811299507077	5330	120,00338097199848	5330	-0,039523268287522284	5330	0	5330	0
5340	-0,049044301992889262	5340	120,00068991479979	5340	-0,23679477821017625	5340	120,00338097199848	5340	-0,039523268287522284	5340	0	5340	0
5350	-0,028683989519579026	5350	120,00646683766792	5350	0,70130966774270542	5350	120,00338097199848	5350	-0,039523268287522284	5350	0	5350	0
5360	-0,041079782405842785	5360	120,00294389490996	5360	-0,066546106593822429	5360	120,00338097199848	5360	-0,039523268287522284	5360	0	5360	0
5370	-0,041118215328005733	5370	120,00298714270065	5370	0,11773077742269372	5370	120,00338097199848	5370	-0,039523268287522284	5370	0	5370	0
5380	-0,031891881236442522	5380	120,00584207820207	5380	-0,014743910575892694	5380	120,00338097199848	5380	-0,039523268287522284	5380	0	5380	0
5390	-0,046388703487652977	5390	120,00415027948506	5390	-0,33789193235200443	5390	120,00338097199848	5390	-0,039523268287522284	5390	0	5390	0
5400	-0,041544741263158352	5400	120,00424762857337	5400	0,41724761024125012	5400	120,00338097199848	5400	-0,039523268287522284	5400	0	5400	0
5410	-0,032510053370966976	5410	120,00305335728406	5410	-0,30540491231711486	5410	120,00338097199848	5410	-0,039523268287522284	5410	0	5410	0
5420	-0,038769270231267354	5420	120,00015566891474	5420	-1,6846990453112518	5420	120,00338097199848	5420	-0,039523268287522284	5420	0	5420	0
5430	-0,032001145329177673	5430	120,0044391082627	5430	0,92889243701407531	5430	120,00338097199848	5430	-0,039523268287522284	5430	0	5430	0
5440	-0,048253070462936046	5440	119,99934414824699	5440	0,23268990606980464	5440	120,00338097199848	5440	-0,039523268287522284	5440	0	5440	0
5450	-0,040645047730443563	5450	120,00212165941544	5450	-0,24662868408959371	5450	120,00338097199848	5450	-0,039523268287522284	5450	0	5450	0
5460	-0,03762060593606377	5460	120,00383680563711	5460	0,36736194904827268	5460	120,00338097199848	5460	-0,039523268287522284	5460	0	5460	0
5470	-0,027145266713882014	5470	120,00739801458691	5470	0,47289831118802894	5470	120,00338097199848	5470	-0,039523268287522284	5470	0	5470	0
5480	-0,047677073978103411	5480	120,00464285123272	5480	0,004716731623450876	5480	120,00338097199848	5480	-0,039523268287522284	5480	0	5480	0
5490	-0,03883377216172236	5490	120,00618625539124	5490	0,67697477919372462	5490	120,00338097199848	5490	-0,039523268287522284	5490	0	5490	0
5500	-0,031711427516757672	5500	120,00553974518364	5500	0,64620825056192843	5500	120,00338097199848	5500	-0,039523268287522284	5500	0	5500	0
5510	-0,05018500014769646	5510	120,00238118533974	5510	-0,76962803365053467	5510	120,00338097199848	5510	-0,039523268287522284	5510	0	5510	0
5520	-0,02454250202227358	5520	120,00562857889122	5520	0,52996449127864542	5520	120,00338097199848	5520	-0,039523268287522284	5520	0	5520	0
5530	-0,038589440580601646	5530	120,00177265558845	5530	-0,01415036133034564	5530	120,00338097199848	5530	-0,039523268287522284	5530	0	5530	0
5540	-0,0426055274499557	5540	119,99994596970309	5540	-0,23080565112945251	5540	120,00338097199848	5540	-0,039523268287522284	5540	0	5540	0
5550	-0,049911205437095575	5550	120,00116410742076	5550	-0,38584230626457244	5550	120,00338097199848	5550	-0,039523268287522284	5550	0	5550	0
5560	-0,041551084287886252	5560	120,00267734726651	5560	0,16863705433156195	5560	120,00338097199848	5560	-0,039523268287522284	5560	0	5560	0
5570	-0,034085786487137594	5570	120,00611546906042	5570	0,46210355173162537	5570	120,00338097199848	5570	-0,039523268287522284	5570	0	5570	0
5580	-0,042657281629948737	5580	120,0059439237715	5580	0,29993477025576143	5580	120,00338097199848	5580	-0,039523268287522284	5580	0	5580	0
5590	-0,03999265649042797	5590	120,00477556547001	5590	0,31427302550991632	5590	120,00338097199848	5590	-0,039523268287522284	5590	0	5590	0
5600	-0,020357496306283134	5600	120,008593793642	5600	1,3802676553141826	5600	120,00338097199848	5600	-0,039523268287522284	5600	0	5600	0
5610	-0,028833142979141291	5610	120,00834839373958	5610	1,9151630981848145	5610	120,00338097199848	5610	-0,039523268287522284	5610	0	5610	0
5620	-0,05292799582403613	5620	119,99821982117715	5620	-0,67891723279574612	5620	120,00338097199848	5620	-0,039523268287522284	5620	0	5620	0
5630	-0,047612126703561422	5630	120,00017039742066	5630	-0,42015052978573086	5630	120,00338097199848	5630	-0,039523268287522284	5630	0	5630	0
5640	-0,044097744665839621	5640	120,00238407548848	5640	-0,51701575284738122	5640	120,00338097199848	5640	-0,039523268287522284	5640	0	5640	0
5650	-0,051958379913025286	5650	120,00046828952706	5650	-1,313650424955003	5650	120,00338097199848	5650	-0,039523268287522284	5650	0	5650	0
5660	-0,035566795135189858	5660	120,00333577891523	5660	1,0754731440954539	5660	120,00338097199848	5660	-0,039523268287522284	5660	0	5660	0
5670	-0,040006985092913283	5670	120,00300784555871	5670	0,2772445742991862	5670	120,00338097199848	5670	-0,039523268287522284	5670	0	5670	0
5680	-0,045246547945055088	5680	120,00435596833955	5680	0,67614359120182133	5680	120,00338097199848	5680	-0,039523268287522284	5680	0	5680	0
5690	-0,048129042500782579	5690	119,99974544505653	5690	-1,3057374552482681	5690	120,00338097199848	5690	-0,039523268287522284	5690	0	5690	0
5700	-0,03122028914238258	5700	120,00582659726905	5700	-0,088965040353893937	5700	120,00338097199848	5700	-0,039523268287522284	5700	0	5700	0
5710	-0,050765923096724438	5710	120,0024273255948	5710	0,10662355444437094	5710	120,00338097199848	5710	-0,039523268287522284	5710	0	5710	0
5720	-0,029366125153836044	5720	120,005711208868	5720	-0,19546986035801947	5720	120,00338097199848	5720	-0,039523268287522284	5720	0	5720	0
5730	-0,059647795276744256	5730	120,00090648702955	5730	-0,81961104227410242	5730	120,00338097199848	5730	-0,039523268287522284	5730	0	5730	0
5740	-0,031470180583010356	5740	120,00425190073942	5740	0,28797914517664325	5740	120,00338097199848	5740	-0,039523268287522284	5740	0	5740	0
5750	-0,036426338789025951	5750	120,00489409013349	5750	0,9668090168462129	5750	120,00338097199848	5750	-0,039523268287522284	5750	0	5750	0
5760	-0,046461602507676017	5760	120,0040347298673	5760	0,42278552840400641	5760	120,00338097199848	5760	-0,039523268287522284	5760	0	5760	0
5770	-0,040353351449635304	5770	120,00278663708014	5770	-1,621419768849965	5770	120,00338097199848	5770	-0,039523268287522284	5770	0	5770	0
5780	-0,039967392350637829	5780	120,00437646408506	5780	0,21312529197312752	5780	120,00338097199848	5780	-0,039523268287522284	5780	0	5780	0
5790	-0,032009160304804767	5790	120,00573329822764	5790	0,31535861051685971	5790	120,00338097199848	5790	-0,039523268287522284	5790	0	5790	0
5800	-0,0531446572520778	5800	119,99958206150856	5800	0,21641292854396632	5800	120,00338097199848	5800	-0,039523268287522284	5800	0	5800	0
5810	-0,034730433384280751	5810	120,00675478164948	5810	0,60412920720940078	5810	120,00338097199848	5810	-0,039523268287522284	5810	0	5810	0
5820	-0,051287196579928113	5820	119,99772473181038	5820	-1,3244830229850824	5820	120,00338097199848	5820	-0,039523268287522284	5820	0	5820	0
5830	-0,036972938584845814	5830	120,00353117787186	5830	0,26950982524447009	5830	120,00338097199848	5830	-0,039523268287522284	5830	0	5830	0
5840	-0,034612983557472936	5840	120,00395917109164	5840	-0,3024542790232061	5840	120,00338097199848	5840	-0,039523268287522284	5840	0	5840	0
5850	-0,039261734199808114	5850	120,00347395273631	5850	0,63447981165228928	5850	120,00338097199848	5850	-0,039523268287522284	5850	0	5850	0
5860	-0,040304056654261622	5860	120,00386672935089	5860	-0,58230272006225914	5860	120,00338097199848	5860	-0,039523268287522284	5860	0	5860	0
5870	-0,0392457432941795	5870	120,00329835073634	5870	-0,074717030609495971	5870	120,00338097199848	5870	-0,039523268287522284	5870	0	5870	0
5880	-0,040655232077082291	5880	120,00517527797791	5880	0,15836654415988033	5880	120,00338097199848	5880	-0,039523268287522284	5880	0	5880	0
5890	-0,025474924599571111	5890	120,00631724334372	5890	1,4497089225648254	5890	120,00338097199848	5890	-0,039523268287522284	5890	0	5890	0
5900	-0,039112008852856157	5900	120,00255823479624	5900	0,52986648925672764	5900	120,00338097199848	5900	-0,039523268287522284	5900	0	5900	0
5910	-0,053383149214143569	5910	119,99898145803672	5910	-1,0650885797057379	5910	120,00338097199848	5910	-0,039523268287522284	5910	0	5910	0
5920	-0,039343034138519542	5920	119,99931180494403	5920	-1,2103172543886338	5920	120,00338097199848	5920	-0,039523268287522284	5920	0	5920	0
5930	-0,042111328591431192	5930	120,00331125901847	5930	-0,56307280472164667	5930	120,00338097199848	5930	-0,039523268287522284	5930	0	5930	0
5940	-0,038461739615671453	5940	120,00274294627189	5940	0,51650523402510451	5940	120,00338097199848	5940	-0,039523268287522284	5940	0	5940	0
5950	-0,035251927979496757	5950	120,0048653883721	5950	-0,20377363527993814	5950	120,00338097199848	5950	-0,039523268287522284	5950	0	5950	0
5960	-0,036890619708829182	5960	120,00466596308148	5960	0,67267490501956151	5960	120,00338097199848	5960	-0,039523268287522284	5960	0	5960	0
5970	-0,031981312476691712	5970	120,00632144349714	5970	0,827770137159838	5970	120,00338097199848	5970	-0,039523268287522284	5970	0	5970	0
5980	-0,043479547580319813	5980	120,00496876041639	5980	0,35245248099811632	5980	120,00338097199848	5980	-0,039523268287522284	5980	0	5980	0
5990	-0,037715562900606431	5990	120,00296698600181	5990	-0,068506589432173359	5990	120,00338097199848	5990	-0,039523268287522284	5990	0	5990	0
6000	-0,040826106495043542	6000	120,00278565917979	6000	0,049531206348409879	6000	120,00338097199848	6000	-0,039523268287522284	6000	0	6000	0
6010	-0,035830570509549631	6010	120,00553389699758	6010	0,27763086999297781	6010	120,00338097199848	6010	-0,039523268287522284	6010	0	6010	0
6020	-0,049003890449621716	6020	120,00115005421478	6020	-0,88895260057948611	6020	120,00338097199848	6020	-0,039523268287522284	6020	0	6020	0
6030	-0,035392512894543232	6030	120,00589043373793	6030	1,2268510474134164	6030	120,00338097199848	6030	-0,039523268287522284	6030	0	6030	0
6040	-0,053350981282782352	6040	119,99741143795212	6040	-1,4749930833049756	6040	120,00338097199848	6040	-0,039523268287522284	6040	0	6040	0
6050	-0,030937916858655469	6050	120,0056644498717	6050	0,80683102043222421	6050	120,00338097199848	6050	-0,039523268287522284	6050	0	6050	0
6060	-0,0407356693877328	6060	120,00291180423847	6060	-0,39426274291913743	6060	120,00338097199848	6060	-0,039523268287522284	6060	0	6060	0
6070	-0,035805833058424941	6070	120,00333643276484	6070	0,13132088282818671	6070	120,00338097199848	6070	-0,039523268287522284	6070	0	6070	0
6080	-0,043766451509105679	6080	120,00507760674442	6080	0,29911547009985723	6080	120,00338097199848	6080	-0,039523268287522284	6080	0	6080	0
6090	-0,040060701276592593	6090	120,00484548494568	6090	-0,10472786258109745	6090	120,00338097199848	6090	-0,039523268287522284	6090	0	6090	0
6100	-0,036476410297546905	6100	120,00538085633561	6100	0,046346606356347464	6100	120,00338097199848	6100	-0,039523268287522284	6100	0	6100	0
6110	-0,036344001142722737	6110	120,00354119099399	6110	-0,021845794046649547	6110	120,00338097199848	6110	-0,039523268287522284	6110	0	6110	0
6120	-0,031092707086771608	6120	120,00409183821557	6120	0,28286836161894935	6120	120,00338097199848	6120	-0,039523268287522284	6120	0	6120	0
6130	-0,056857489643473473	6130	119,99862931685017	6130	-1,3607253876113852	6130	120,00338097199848	6130	-0,039523268287522284	6130	0	6130	0
6140	-0,033385904585821663	6140	120,00441667904394	6140	0,90196360544152787	6140	120,00338097199848	6140	-0,039523268287522284	6140	0	6140	0
6150	-0,028103721954178554	6150	120,00513480718372	6150	1,3456793676887062	6150	120,00338097199848	6150	-0,039523268287522284	6150	0	6150	0
6160	-0,0307961353442007	6160	120,00517701870756	6160	0,81438365055155182	6160	120,00338097199848	6160	-0,039523268287522284	6160	0	6160	0
6170	-0,047710783225939163	6170	120,00150944031721	6170	-0,70888402865778877	6170	120,00338097199848	6170	-0,039523268287522284	6170	0	6170	0
6180	-0,037942499984974544	6180	120,0041453836253	6180	0,58025911536299257	6180	120,00338097199848	6180	-0,039523268287522284	6180	0	6180	0
6190	-0,032928814885358246	6190	120,00301590691029	6190	-0,1818346773656101	6190	120,00338097199848	6190	-0,039523268287522284	6190	0	6190	0
6200	-0,047208413146451286	6200	119,99983627730002	6200	-1,0048876916822718	6200	120,00338097199848	6200	-0,039523268287522284	6200	0	6200	0
6210	-0,043936341374519752	6210	120,00347939869695	6210	0,52200697534015539	6210	120,00338097199848	6210	-0,039523268287522284	6210	0	6210	0
6220	-0,034322579467440155	6220	120,00434598166885	6220	0,32190857805778572	6220	120,00338097199848	6220	-0,039523268287522284	6220	0	6220	0
6230	-0,041848904101900439	6230	120,00404685089696	6230	0,064251638960315077	6230	120,00338097199848	6230	-0,039523268287522284	6230	0	6230	0
6240	-0,050132813976393749	6240	119,99968427036404	6240	-1,6648259486201615	6240	120,00338097199848	6240	-0,039523268287522284	6240	0	6240	0
6250	-0,025184654164417217	6250	120,00468840005344	6250	1,121058118142372	6250	120,00338097199848	6250	-0,039523268287522284	6250	0	6250	0
6260	-0,046349537683488928	6260	120,00286004178975	6260	-0,92683764813446	6260	120,00338097199848	6260	-0,039523268287522284	6260	0	6260	0
6270	-0,039523583723391237	6270	119,99989376182811	6270	-0,13568086672921736	6270	120,00338097199848	6270	-0,039523268287522284	6270	0	6270	0
6280	-0,042550662569564024	6280	120,00440989968794	6280	-0,46828998622806162	6280	120,00338097199848	6280	-0,039523268287522284	6280	0	6280	0
6290	-0,043780738496726437	6290	120,00135022203915	6290	-0,054433741823866455	6290	120,00338097199848	6290	-0,039523268287522284	6290	0	6290	0
6300	-0,037772111397715059	6300	120,00406499973271	6300	-1,1812706841220733	6300	120,00338097199848	6300	-0,039523268287522284	6300	0	6300	0
6310	-0,032859007703625619	6310	120,00541678216135	6310	0,0685645798159748	6310	120,00338097199848	6310	-0,039523268287522284	6310	0	6310	0
6320	-0,036802166778995518	6320	120,0032872883509	6320	-0,24518158673758839	6320	120,00338097199848	6320	-0,039523268287522284	6320	0	6320	0
6330	-0,042006084530515894	6330	120,00279679283439	6330	-0,49199688901244265	6330	120,00338097199848	6330	-0,039523268287522284	6330	0	6330	0
6340	-0,030362211584290456	6340	120,00520860137969	6340	0,66189785517225153	6340	120,00338097199848	6340	-0,039523268287522284	6340	0	6340	0
6350	-0,036923790811784964	6350	120,00281988944438	6350	0,24055689388366108	6350	120,00338097199848	6350	-0,039523268287522284	6350	0	6350	0
6360	-0,039073113727284364	6360	120,00299178459788	6360	0,82781003143576815	6360	120,00338097199848	6360	-0,039523268287522284	6360	0	6360	0
6370	-0,043218983137142	6370	120,00211791265564	6370	0,42122777741686	6370	120,00338097199848	6370	-0,039523268287522284	6370	0	6370	0
6380	-0,040065066366150308	6380	120,00560133904568	6380	0,482210820583552	6380	120,00338097199848	6380	-0,039523268287522284	6380	0	6380	0
6390	-0,041181661276458677	6390	120,0019340072615	6390	-0,26583077255824988	6390	120,00338097199848	6390	-0,039523268287522284	6390	0	6390	0
6400	-0,040730804888976083	6400	120,00320786399742	6400	-1,0693307975836215	6400	120,00338097199848	6400	-0,039523268287522284	6400	0	6400	0
6410	-0,030959119390566826	6410	120,00450481850976	6410	0,71878798580753711	6410	120,00338097199848	6410	-0,039523268287522284	6410	0	6410	0
6420	-0,053324093407719174	6420	120,00060246386497	6420	-0,99567880458407254	6420	120,00338097199848	6420	-0,039523268287522284	6420	0	6420	0
6430	-0,030914652163305259	6430	120,00591299254762	6430	0,018610566991928035	6430	120,00338097199848	6430	-0,039523268287522284	6430	0	6430	0
6440	-0,032880471607367623	6440	120,00585955738845	6440	1,2758891430769372	6440	120,00338097199848	6440	-0,039523268287522284	6440	0	6440	0
6450	-0,033012295104520709	6450	120,00555666503954	6450	0,61010151576800409	6450	120,00338097199848	6450	-0,039523268287522284	6450	0	6450	0
6460	-0,0530652157992183	6460	120,00195945231086	6460	-0,50384366453391294	6460	120,00338097199848	6460	-0,039523268287522284	6460	0	6460	0
6470	-0,041067985086685133	6470	120,00323629130837	6470	0,22825113625706656	6470	120,00338097199848	6470	-0,039523268287522284	6470	0	6470	0
6480	-0,046191383292957189	6480	120,00245916127686	6480	0,42821184475980245	6480	120,00338097199848	6480	-0,039523268287522284	6480	0	6480	0
6490	-0,04237400021175998	6490	120,00292725766865	6490	-0,32631462279528944	6490	120,00338097199848	6490	-0,039523268287522284	6490	0	6490	0
6500	-0,040061043389998281	6500	120,00399113386821	6500	0,020233817504056895	6500	120,00338097199848	6500	-0,039523268287522284	6500	0	6500	0
6510	-0,0393158884120432	6510	120,0017653807445	6510	0,032788840955522175	6510	120,00338097199848	6510	-0,039523268287522284	6510	0	6510	0
6520	-0,031245033350781062	6520	120,00439022287787	6520	-0,23915858232060444	6520	120,00338097199848	6520	-0,039523268287522284	6520	0	6520	0
6530	-0,044645751894039874	6530	120,00221904605017	6530	-0,35142133373172807	6530	120,00338097199848	6530	-0,039523268287522284	6530	0	6530	0
6540	-0,036250030265418863	6540	120,0027978398993	6540	-0,091261211230234035	6540	120,00338097199848	6540	-0,039523268287522284	6540	0	6540	0
6550	-0,047242841466997823	6550	120,00294300469888	6550	-0,698903627537468	6550	120,00338097199848	6550	-0,039523268287522284	6550	0	6550	0
6560	-0,026287494402953603	6560	120,00735313498005	6560	1,5241841372811338	6560	120,00338097199848	6560	-0,039523268287522284	6560	0	6560	0
6570	-0,040563868684777273	6570	120,00227256969536	6570	-0,75076959303738611	6570	120,00338097199848	6570	-0,039523268287522284	6570	0	6570	0
6580	-0,045099810788249164	6580	120,00179630586925	6580	-0,26779506597597474	6580	120,00338097199848	6580	-0,039523268287522284	6580	0	6580	0
6590	-0,036164439287574825	6590	120,0020182908772	6590	-0,81449520062715952	6590	120,00338097199848	6590	-0,039523268287522284	6590	0	6590	0
6600	-0,036949783337331059	6600	120,00553035021198	6600	0,034553953395239992	6600	120,00338097199848	6600	-0,039523268287522284	6600	0	6600	0
6610	-0,035445393558922587	6610	120,00386785795077	6610	1,4441708019008006	6610	120,00338097199848	6610	-0,039523268287522284	6610	0	6610	0
6620	-0,037109464997790546	6620	120,0037817910808	6620	-0,77563663242145231	6620	120,00338097199848	6620	-0,039523268287522284	6620	0	6620	0
6630	-0,033670108665889764	6630	120,00488841459656	6630	0,59357230945102435	6630	120,00338097199848	6630	-0,039523268287522284	6630	0	6630	0
6640	-0,036672696655073812	6640	120,00342439738655	6640	0,91558158361494391	6640	120,00338097199848	6640	-0,039523268287522284	6640	0	6640	0
6650	-0,033675634677494945	6650	120,00252614777047	6650	-0,81967929591486754	6650	120,00338097199848	6650	-0,039523268287522284	6650	0	6650	0
6660	-0,038374648442364392	6660	120,00287058175037	6660	0,086397320814496748	6660	120,00338097199848	6660	-0,039523268287522284	6660	0	6660	0
6670	-0,03734311428244011	6670	120,00313731953972	6670	-0,5314611446184192	6670	120,00338097199848	6670	-0,039523268287522284	6670	0	6670	0
6680	-0,046553042371125425	6680	120,00332431774847	6680	0,11150198155484484	6680	120,00338097199848	6680	-0,039523268287522284	6680	0	6680	0
6690	-0,048995535514305535	6690	120,00067854216364	6690	-0,85387018595181474	6690	120,00338097199848	6690	-0,039523268287522284	6690	0	6690	0
6700	-0,0392797899812315	6700	120,00453883325277	6700	0,744339217598883	6700	120,00338097199848	6700	-0,039523268287522284	6700	0	6700	0
6710	-0,042304422252250805	6710	120,00448208855767	6710	0,0090996615062983038	6710	120,00338097199848	6710	-0,039523268287522284	6710	0	6710	0
6720	-0,034845420929574634	6720	120,00353789344072	6720	-0,024631532130505729	6720	120,00338097199848	6720	-0,039523268287522284	6720	0	6720	0
6730	-0,039283907150902943	6730	120,00398178395261	6730	0,11279914298738829	6730	120,00338097199848	6730	-0,039523268287522284	6730	0	6730	0
6740	-0,044609972192001343	6740	120,0015969217741	6740	-0,39197118363775008	6740	120,00338097199848	6740	-0,039523268287522284	6740	0	6740	0
6750	-0,031602390084134208	6750	120,00539163060421	6750	0,18630135911381862	6750	120,00338097199848	6750	-0,039523268287522284	6750	0	6750	0
6760	-0,042475407781415633	6760	120,00134492158422	6760	1,572534285124318	6760	120,00338097199848	6760	-0,039523268287522284	6760	0	6760	0
6770	-0,028695636005598744	6770	120,00419908276665	6770	1,2902712647053893	6770	120,00338097199848	6770	-0,039523268287522284	6770	0	6770	0
6780	-0,035922466079773167	6780	120,00355977046945	6780	0,986370427298803	6780	120,00338097199848	6780	-0,039523268287522284	6780	0	6780	0
6790	-0,041920366826375226	6790	120,00278899975986	6790	-0,3838708226066575	6790	120,00338097199848	6790	-0,039523268287522284	6790	0	6790	0
6800	-0,048263406250244632	6800	120,00360295754412	6800	-0,42187880516515308	6800	120,00338097199848	6800	-0,039523268287522284	6800	0	6800	0
6810	-0,042545624056158589	6810	120,00244645318236	6810	-0,14176867548392769	6810	120,00338097199848	6810	-0,039523268287522284	6810	0	6810	0
6820	-0,0329375850403731	6820	120,00421317632063	6820	0,029979441245465838	6820	120,00338097199848	6820	-0,039523268287522284	6820	0	6820	0
6830	-0,033063476576475216	6830	120,00701556572219	6830	0,99290384002066145	6830	120,00338097199848	6830	-0,039523268287522284	6830	0	6830	0
6840	-0,041537248954464076	6840	120,00382602072834	6840	0,530806159202514	6840	120,00338097199848	6840	-0,039523268287522284	6840	0	6840	0
6850	-0,040786363642744468	6850	120,00346069197829	6850	0,69477168635738384	6850	120,00338097199848	6850	-0,039523268287522284	6850	0	6850	0
6860	-0,04094383222737781	6860	120,00191602070306	6860	0,069366857845898716	6860	120,00338097199848	6860	-0,039523268287522284	6860	0	6860	0
6870	-0,046568054099359033	6870	119,9994592149003	6870	-1,128316500024017	6870	120,00338097199848	6870	-0,039523268287522284	6870	0	6870	0
6880	-0,0551989322469621	6880	120,00264840366158	6880	-0,14422917039689503	6880	120,00338097199848	6880	-0,039523268287522284	6880	0	6880	0
6890	-0,026173843533936945	6890	120,00734221488159	6890	0,29498599350375354	6890	120,00338097199848	6890	-0,039523268287522284	6890	0	6890	0
6900	-0,040818189433773057	6900	120,002794789571	6900	0,191103702460942	6900	120,00338097199848	6900	-0,039523268287522284	6900	0	6900	0
6910	-0,0450712503852388	6910	120,00156936901144	6910	-0,049152849015291766	6910	120,00338097199848	6910	-0,039523268287522284	6910	0	6910	0
6920	-0,033812993931254767	6920	120,00533469759259	6920	0,12036665543450548	6920	120,00338097199848	6920	-0,039523268287522284	6920	0	6920	0
6930	-0,031082584173650271	6930	120,00642851208255	6930	0,555901153741277	6930	120,00338097199848	6930	-0,039523268287522284	6930	0	6930	0
6940	-0,060652205305849083	6940	119,99832652940201	6940	-0,84068630653455156	6940	120,00338097199848	6940	-0,039523268287522284	6940	0	6940	0
6950	-0,040121143179071755	6950	120,00196323562729	6950	-0,0042126819734240872	6950	120,00338097199848	6950	-0,039523268287522284	6950	0	6950	0
6960	-0,046028586251413948	6960	120,00361585036541	6960	0,88475425518407869	6960	120,00338097199848	6960	-0,039523268287522284	6960	0	6960	0
6970	-0,031220648674061591	6970	120,00510592481477	6970	0,78386566599712149	6970	120,00338097199848	6970	-0,039523268287522284	6970	0	6970	0
6980	-0,041667980873229662	6980	120,00484335096192	6980	-0,06220667630124696	6980	120,00338097199848	6980	-0,039523268287522284	6980	0	6980	0
6990	-0,023895241373346296	6990	120,00741149115784	6990	0,9795926114635205	6990	120,00338097199848	6990	-0,039523268287522284	6990	0	6990	0
7000	-0,0442599592086249	7000	120,00451724903083	7000	0,14283570075608573	7000	120,00338097199848	7000	-0,039523268287522284	7000	0	7000	0
7010	-0,052263585513143918	7010	120,00148481310424	7010	0,2665879396579191	7010	120,00338097199848	7010	-0,039523268287522284	7010	0	7010	0
7020	-0,038629444081114905	7020	120,00232218107252	7020	-0,97473093108062281	7020	120,00338097199848	7020	-0,039523268287522284	7020	0	7020	0
7030	-0,050777595020078212	7030	120,00265640043504	7030	-0,38592102173631221	7030	120,00338097199848	7030	-0,039523268287522284	7030	0	7030	0
7040	-0,016758596495764434	7040	120,00616049401111	7040	0,509574406713097	7040	120,00338097199848	7040	-0,039523268287522284	7040	0	7040	0
7050	-0,044652183446153994	7050	120,00281721090073	7050	0,19043786850710992	7050	120,00338097199848	7050	-0,039523268287522284	7050	0	7050	0
7060	-0,038146596862325813	7060	120,00355093369377	7060	0,15660052035279293	7060	120,00338097199848	7060	-0,039523268287522284	7060	0	7060	0
7070	-0,04751405871432219	7070	119,99975003097147	7070	-0,10147540378000153	7070	120,00338097199848	7070	-0,039523268287522284	7070	0	7070	0
7080	-0,040902767078739147	7080	120,00499126530902	7080	0,48217631184888621	7080	120,00338097199848	7080	-0,039523268287522284	7080	0	7080	0
7090	-0,038041321822804022	7090	120,00285051996242	7090	-0,41753702068584	7090	120,00338097199848	7090	-0,039523268287522284	7090	0	7090	0
7100	-0,040336867569299606	7100	120,0050711275115	7100	0,54560574845332	7100	120,00338097199848	7100	-0,039523268287522284	7100	0	7100	0
7110	-0,058080449945914325	7110	120,00013136297724	7110	-0,40039244569661059	7110	120,00338097199848	7110	-0,039523268287522284	7110	0	7110	0
7120	-0,034770571443854939	7120	120,00061820530031	7120	-1,0258315406204352	7120	120,00338097199848	7120	-0,039523268287522284	7120	0	7120	0
7130	-0,040202980852529234	7130	120,00450160120262	7130	0,093319692366482354	7130	120,00338097199848	7130	-0,039523268287522284	7130	0	7130	0
7140	-0,0355614016119055	7140	120,00513784667315	7140	0,93258968288484989	7140	120,00338097199848	7140	-0,039523268287522284	7140	0	7140	0
7150	-0,035817155761910004	7150	120,00623161481569	7150	-0,15197871072486238	7150	120,00338097199848	7150	-0,039523268287522284	7150	0	7150	0
7160	-0,040994036217802315	7160	120,00556417674233	7160	-0,15846166049447613	7160	120,00338097199848	7160	-0,039523268287522284	7160	0	7160	0
7170	-0,037342332985571394	7170	120,00405849017047	7170	-0,079114774032578578	7170	120,00338097199848	7170	-0,039523268287522284	7170	0	7170	0
7180	-0,051023385440382249	7180	119,99948256256796	7180	-0,89082800027256659	7180	120,00338097199848	7180	-0,039523268287522284	7180	0	7180	0
7190	-0,053771872883911623	7190	119,9987771182355	7190	-0,99309613118571138	7190	120,00338097199848	7190	-0,039523268287522284	7190	0	7190	0
7200	-0,027659299294325677	7200	120,00543770771114	7200	0,536964041500916	7200	120,00338097199848	7200	-0,039523268287522284	7200	0	7200	0
7210	-0,040426477589372865	7210	120,00201314911628	7210	0,46534659828463082	7210	120,00338097199848	7210	-0,039523268287522284	7210	0	7210	0
7220	-0,036641374896980286	7220	120,00325471681785	7220	0,69833949443811894	7220	120,00338097199848	7220	-0,039523268287522284	7220	0	7220	0
7230	-0,046966730258035681	7230	120,00367347484202	7230	1,1366121761486849	7230	120,00338097199848	7230	-0,039523268287522284	7230	0	7230	0
7240	-0,034051906414164036	7240	120,00343771341906	7240	1,1644778569622591	7240	120,00338097199848	7240	-0,039523268287522284	7240	0	7240	0
7250	-0,0370103152388309	7250	120,00620287395289	7250	0,10922066489355212	7250	120,00338097199848	7250	-0,039523268287522284	7250	0	7250	0
7260	-0,038542078341583574	7260	120,00388611141631	7260	-0,5762312360318248	7260	120,00338097199848	7260	-0,039523268287522284	7260	0	7260	0
7270	-0,032543121601965368	7270	120,00461191881182	7270	0,10378616741537924	7270	120,00338097199848	7270	-0,039523268287522284	7270	0	7270	0
7280	-0,048001555867719779	7280	120,00427238496096	7280	0,11261597292209916	7280	120,00338097199848	7280	-0,039523268287522284	7280	0	7280	0
7290	-0,04124435980079378	7290	120,00295487872938	7290	-0,1427990985204538	7290	120,00338097199848	7290	-0,039523268287522284	7290	0	7290	0
7300	-0,047674865557807339	7300	120,00195007233904	7300	-0,26501474955657123	7300	120,00338097199848	7300	-0,039523268287522284	7300	0	7300	0
7310	-0,038283414416533115	7310	120,00173944329012	7310	0,31395577214754372	7310	120,00338097199848	7310	-0,039523268287522284	7310	0	7310	0
7320	-0,04499477134681687	7320	120,00306595910359	7320	-0,24792811851894026	7320	120,00338097199848	7320	-0,039523268287522284	7320	0	7320	0
7330	-0,044093369284075819	7330	120,00242770793297	7330	0,26387700415449483	7330	120,00338097199848	7330	-0,039523268287522284	7330	0	7330	0
7340	-0,047543592076582576	7340	120,00360435933254	7340	-0,73353980523662388	7340	120,00338097199848	7340	-0,039523268287522284	7340	0	7340	0
7350	-0,035175499732881955	7350	120,00519366533914	7350	0,24692743638845582	7350	120,00338097199848	7350	-0,039523268287522284	7350	0	7350	0
7360	-0,033317187214844404	7360	120,00572834996011	7360	0,88481846855686508	7360	120,00338097199848	7360	-0,039523268287522284	7360	0	7360	0
7370	-0,036541311757801238	7370	120,00355199463967	7370	-0,12803691533722317	7370	120,00338097199848	7370	-0,039523268287522284	7370	0	7370	0
7380	-0,044128035874047358	7380	120,00423860013888	7380	-0,27870554686587989	7380	120,00338097199848	7380	-0,039523268287522284	7380	0	7380	0
7390	-0,03776991420442808	7390	120,00348065162808	7390	0,1110095872095429	7390	120,00338097199848	7390	-0,039523268287522284	7390	0	7390	0
7400	-0,045360391774863534	7400	119,99988655715075	7400	0,077372968947256676	7400	120,00338097199848	7400	-0,039523268287522284	7400	0	7400	0
7410	-0,03719371726314441	7410	120,00426184002448	7410	-0,12809336012723865	7410	120,00338097199848	7410	-0,039523268287522284	7410	0	7410	0
7420	-0,03180327124002074	7420	120,00623621509975	7420	0,40983508752949049	7420	120,00338097199848	7420	-0,039523268287522284	7420	0	7420	0
7430	-0,035948811794505237	7430	120,00383761728179	7430	0,47267519730479335	7430	120,00338097199848	7430	-0,039523268287522284	7430	0	7430	0
7440	-0,040504618122905046	7440	120,00292514218877	7440	-0,009159695485470562	7440	120,00338097199848	7440	-0,039523268287522284	7440	0	7440	0
7450	-0,040818001465410224	7450	120,00259155962993	7450	0,16744202984710843	7450	120,00338097199848	7450	-0,039523268287522284	7450	0	7450	0
7460	-0,044932157573326539	7460	120,00141002847549	7460	0,19522285387798882	7460	120,00338097199848	7460	-0,039523268287522284	7460	0	7460	0
7470	-0,029437219148330727	7470	120,0051724822786	7470	-1,0365645610716392	7470	120,00338097199848	7470	-0,039523268287522284	7470	0	7470	0
7480	-0,0404863163008245	7480	120,00496564911462	7480	0,77213900321242845	7480	120,00338097199848	7480	-0,039523268287522284	7480	0	7480	0
7490	-0,03493034922740134	7490	120,00539975975144	7490	-0,30401209917336797	7490	120,00338097199848	7490	-0,039523268287522284	7490	0	7490	0
7500	-0,044004050631902096	7500	120,00232659662251	7500	0,47865498113832355	7500	120,00338097199848	7500	-0,039523268287522284	7500	0	7500	0
7510	-0,050826724372330434	7510	120,0009601104554	7510	0,27489176850312047	7510	120,00338097199848	7510	-0,039523268287522284	7510	0	7510	0
7520	-0,034155932827127866	7520	120,00363935222771	7520	0,47194823509608008	7520	120,00338097199848	7520	-0,039523268287522284	7520	0	7520	0
7530	-0,019062020308763711	7530	120,00660349587531	7530	1,1401041051601515	7530	120,00338097199848	7530	-0,039523268287522284	7530	0	7530	0
7540	-0,03832549415196991	7540	120,00491556477761	7540	0,4904072571628848	7540	120,00338097199848	7540	-0,039523268287522284	7540	0	7540	0
7550	-0,027046690020129067	7550	120,00396032476442	7550	0,72488030890457678	7550	120,00338097199848	7550	-0,039523268287522284	7550	0	7550	0
7560	-0,032178657497699291	7560	120,00555493972594	7560	-0,0715243130922508	7560	120,00338097199848	7560	-0,039523268287522284	7560	0	7560	0
7570	-0,038645234022305547	7570	120,00553851311622	7570	0,66788070412176148	7570	120,00338097199848	7570	-0,039523268287522284	7570	0	7570	0
7580	-0,034414012325556076	7580	120,0059766971055	7580	0,11774481354040672	7580	120,00338097199848	7580	-0,039523268287522284	7580	0	7580	0
7590	-0,037700019834499367	7590	120,00361668400927	7590	0,4422677510099447	7590	120,00338097199848	7590	-0,039523268287522284	7590	0	7590	0
7600	-0,05184169414206586	7600	120,00166047384842	7600	-0,56075529964323378	7600	120,00338097199848	7600	-0,039523268287522284	7600	0	7600	0
7610	-0,044053327507863005	7610	120,00100391962558	7610	-0,45703527500178914	7610	120,00338097199848	7610	-0,039523268287522284	7610	0	7610	0
7620	-0,03833000915058965	7620	120,0024976533206	7620	-0,94183227635279809	7620	120,00338097199848	7620	-0,039523268287522284	7620	0	7620	0
7630	-0,038962042370288552	7630	120,00321233642082	7630	0,6867476549178011	7630	120,00338097199848	7630	-0,039523268287522284	7630	0	7630	0
7640	-0,034084632587725455	7640	120,00502757397985	7640	-0,41162968056007043	7640	120,00338097199848	7640	-0,039523268287522284	7640	0	7640	0
7650	-0,040804133399995043	7650	120,00293015864494	7650	-0,39760200582406391	7650	120,00338097199848	7650	-0,039523268287522284	7650	0	7650	0
7660	-0,037278730639522167	7660	120,00383704531068	7660	1,1346420538833755	7660	120,00338097199848	7660	-0,039523268287522284	7660	0	7660	0
7670	-0,050085105212294027	7670	120,00067951458149	7670	-1,6763138403807696	7670	120,00338097199848	7670	-0,039523268287522284	7670	0	7670	0
7680	-0,046420798315535888	7680	120,00192967105268	7680	-0,12009396232689812	7680	120,00338097199848	7680	-0,039523268287522284	7680	0	7680	0
7690	-0,05180548833389808	7690	120,00127853291704	7690	-0,71062597951718653	7690	120,00338097199848	7690	-0,039523268287522284	7690	0	7690	0
7700	-0,038309043883061278	7700	120,00311640951246	7700	-0,50021008422301028	7700	120,00338097199848	7700	-0,039523268287522284	7700	0	7700	0
7710	-0,051643254526010915	7710	120,00011282566861	7710	-0,33409822758098884	7710	120,00338097199848	7710	-0,039523268287522284	7710	0	7710	0
7720	-0,051888470954029611	7720	120,0011810184979	7720	-1,742080598292495	7720	120,00338097199848	7720	-0,039523268287522284	7720	0	7720	0
7730	-0,032732466725263608	7730	120,00614524334432	7730	0,36005596359025449	7730	120,00338097199848	7730	-0,039523268287522284	7730	0	7730	0
7740	-0,0462794026473539	7740	120,00014718240379	7740	-1,0315942601582255	7740	120,00338097199848	7740	-0,039523268287522284	7740	0	7740	0
7750	-0,044650527892132891	7750	120,00117611572054	7750	-0,74875289940436252	7750	120,00338097199848	7750	-0,039523268287522284	7750	0	7750	0
7760	-0,0320262690496024	7760	120,00414067448088	7760	0,57787612095867036	7760	120,00338097199848	7760	-0,039523268287522284	7760	0	7760	0
7770	-0,041881165447491174	7770	120,00050259418826	7770	-0,9250145741700031	7770	120,00338097199848	7770	-0,039523268287522284	7770	0	7770	0
7780	-0,024131543487159443	7780	120,00763643045194	7780	2,3654252450462403	7780	120,00338097199848	7780	-0,039523268287522284	7780	0	7780	0
7790	-0,037417189416851813	7790	120,00214570433056	7790	-0,32921042404514178	7790	120,00338097199848	7790	-0,039523268287522284	7790	0	7790	0
7800	-0,043503561555950081	7800	120,00432228426698	7800	-0,098177673455815184	7800	120,00338097199848	7800	-0,039523268287522284	7800	0	7800	0
7810	-0,044893612597884873	7810	120,00293863415443	7810	0,87798671841282383	7810	120,00338097199848	7810	-0,039523268287522284	7810	0	7810	0
7820	-0,033075402745766043	7820	120,00568368335166	7820	-0,093260314056348659	7820	120,00338097199848	7820	-0,039523268287522284	7820	0	7820	0
7830	-0,032725845117890506	7830	120,00613571351875	7830	-0,40484099748393809	7830	120,00338097199848	7830	-0,039523268287522284	7830	0	7830	0
7840	-0,03628041984093186	7840	120,00308512076921	7840	-0,58249439743078235	7840	120,00338097199848	7840	-0,039523268287522284	7840	0	7840	0
7850	-0,042916258675536161	7850	120,00331669564638	7850	0,47126994802953925	7850	120,00338097199848	7850	-0,039523268287522284	7850	0	7850	0
7860	-0,047480974961766828	7860	120,0019859342726	7860	0,21212786599656441	7860	120,00338097199848	7860	-0,039523268287522284	7860	0	7860	0
7870	-0,041938833880946748	7870	120,00380869518594	7870	0,3275859875566508	7870	120,00338097199848	7870	-0,039523268287522284	7870	0	7870	0
7880	-0,035329070385329932	7880	120,00484747928169	7880	0,33383722747244032	7880	120,00338097199848	7880	-0,039523268287522284	7880	0	7880	0
7890	-0,037538400765118891	7890	120,00289203362654	7890	-0,6274932730797036	7890	120,00338097199848	7890	-0,039523268287522284	7890	0	7890	0
7900	-0,042203639383223648	7900	120,0044579958856	7900	0,10952704103335559	7900	120,00338097199848	7900	-0,039523268287522284	7900	0	7900	0
7910	-0,036949761304065763	7910	120,00365687676207	7910	-0,085317985010704034	7910	120,00338097199848	7910	-0,039523268287522284	7910	0	7910	0
7920	-0,0342995440038488	7920	120,00275203151236	7920	-0,31955401513863269	7920	120,00338097199848	7920	-0,039523268287522284	7920	0	7920	0
7930	-0,054650003090450268	7930	120,00010504211213	7930	-0,6312727772129747	7930	120,00338097199848	7930	-0,039523268287522284	7930	0	7930	0
7940	-0,032759144033540244	7940	120,00366897798111	7940	-0,20204944631068711	7940	120,00338097199848	7940	-0,039523268287522284	7940	0	7940	0
7950	-0,045303971639423991	7950	120,00166317681369	7950	-0,6136370427893153	7950	120,00338097199848	7950	-0,039523268287522284	7950	0	7950	0
7960	-0,030560398543980682	7960	120,00533632052701	7960	0,56048476909682576	7960	120,00338097199848	7960	-0,039523268287522284	7960	0	7960	0
7970	-0,034017107152494758	7970	120,00281895596258	7970	-0,24786925586468167	7970	120,00338097199848	7970	-0,039523268287522284	7970	0	7970	0
7980	-0,033310683781864352	7980	120,00881023609196	7980	0,826188136360552	7980	120,00338097199848	7980	-0,039523268287522284	7980	0	7980	0
7990	-0,032043960073322261	7990	120,00361783765452	7990	0,23856659609445879	7990	120,00338097199848	7990	-0,039523268287522284	7990	0	7990	0
8000	-0,054796187544836505	8000	119,9985649738299	8000	-0,95875069937393753	8000	120,00338097199848	8000	-0,039523268287522284	8000	0	8000	0
8010	-0,0356118036171352	8010	120,00411381612862	8010	0,52634345413693784	8010	120,00338097199848	8010	-0,039523268287522284	8010	0	8010	0
8020	-0,034021159608662289	8020	120,00393549030396	8020	1,1410329697872472	8020	120,00338097199848	8020	-0,039523268287522284	8020	0	8020	0
8030	-0,035028270360756252	8030	120,00596785042562	8030	0,92892017544701444	8030	120,00338097199848	8030	-0,039523268287522284	8030	0	8030	0
8040	-0,032277529492256651	8040	120,00538339873791	8040	-0,38253166420450285	8040	120,00338097199848	8040	-0,039523268287522284	8040	0	8040	0
8050	-0,041885377405459619	8050	120,00567174015389	8050	0,027537373523183917	8050	120,00338097199848	8050	-0,039523268287522284	8050	0	8050	0
8060	-0,042617344128695944	8060	120,00347084453632	8060	-0,20368035042055391	8060	120,00338097199848	8060	-0,039523268287522284	8060	0	8060	0
8070	-0,041935559107266825	8070	120,000780438327	8070	-0,14345152023555413	8070	120,00338097199848	8070	-0,039523268287522284	8070	0	8070	0
8080	-0,023640750970444505	8080	120,00644639835645	8080	1,441168453276882	8080	120,00338097199848	8080	-0,039523268287522284	8080	0	8080	0
8090	-0,027482633815442935	8090	120,00548442184729	8090	-0,014900902823538557	8090	120,00338097199848	8090	-0,039523268287522284	8090	0	8090	0
8100	-0,042734813685546116	8100	120,00091272847311	8100	-0,62872261305718746	8100	120,00338097199848	8100	-0,039523268287522284	8100	0	8100	0
8110	-0,035386328116337705	8110	120,0036469099409	8110	0,0387224124904392	8110	120,00338097199848	8110	-0,039523268287522284	8110	0	8110	0
8120	-0,052444224000790962	8120	120,00016932774037	8120	-1,1627547229396267	8120	120,00338097199848	8120	-0,039523268287522284	8120	0	8120	0
8130	-0,046550301050274412	8130	120,00169116320711	8130	-0,50471093485892138	8130	120,00338097199848	8130	-0,039523268287522284	8130	0	8130	0
8140	-0,050203112497222514	8140	120,00065353289861	8140	-1,3651024128443334	8140	120,00338097199848	8140	-0,039523268287522284	8140	0	8140	0
8150	-0,0448604218532813	8150	120,00404420450836	8150	-0,21061113175332344	8150	120,00338097199848	8150	-0,039523268287522284	8150	0	8150	0
8160	-0,043416839384320748	8160	120,00515488579931	8160	-0,794470153902374	8160	120,00338097199848	8160	-0,039523268287522284	8160	0	8160	0
8170	-0,03444351577797139	8170	120,00445064175196	8170	-0,48823743423245286	8170	120,00338097199848	8170	-0,039523268287522284	8170	0	8170	0
8180	-0,024235216209312335	8180	120,0097923080487	8180	0,9935517751908719	8180	120,00338097199848	8180	-0,039523268287522284	8180	0	8180	0
8190	-0,025937397283147069	8190	120,00478506268951	8190	0,40354933591428466	8190	120,00338097199848	8190	-0,039523268287522284	8190	0	8190	0
8200	-0,056473677395834011	8200	120,00050479657207	8200	-0,42076317842077132	8200	120,00338097199848	8200	-0,039523268287522284	8200	0	8200	0
8210	-0,040099040916066343	8210	120,00002176509842	8210	-0,19913105293692346	8210	120,00338097199848	8210	-0,039523268287522284	8210	0	8210	0
8220	-0,044471807803128816	8220	119,99749115892107	8220	-0,99683769580564507	8220	120,00338097199848	8220	-0,039523268287522284	8220	0	8220	0
8230	-0,049081169238629915	8230	120,00282703434043	8230	-0,0506277558274936	8230	120,00338097199848	8230	-0,039523268287522284	8230	0	8230	0
8240	-0,042006260767634328	8240	120,0039379142172	8240	-0,951882338253056	8240	120,00338097199848	8240	-0,039523268287522284	8240	0	8240	0
8250	-0,044651883082359921	8250	120,00374676331184	8250	-0,44837422467026744	8250	120,00338097199848	8250	-0,039523268287522284	8250	0	8250	0
8260	-0,038299366255530827	8260	120,00322291892528	8260	-0,11155449552684316	8260	120,00338097199848	8260	-0,039523268287522284	8260	0	8260	0
8270	-0,035934379300927265	8270	120,00407307667021	8270	0,40089728077092723	8270	120,00338097199848	8270	-0,039523268287522284	8270	0	8270	0
8280	-0,041206790872151018	8280	120,00464685428482	8280	0,15812261691172402	8280	120,00338097199848	8280	-0,039523268287522284	8280	0	8280	0
8290	-0,035326690185275823	8290	120,0026811314947	8290	0,76029803457749745	8290	120,00338097199848	8290	-0,039523268287522284	8290	0	8290	0
8300	-0,039637910725678613	8300	120,0032289006664	8300	-0,84933607157623436	8300	120,00338097199848	8300	-0,039523268287522284	8300	0	8300	0
8310	-0,044961672455493734	8310	120,00397189219433	8310	0,323833924923591	8310	120,00338097199848	8310	-0,039523268287522284	8310	0	8310	0
8320	-0,026288615670371565	8320	120,00593611548941	8320	-0,02230025029828045	8320	120,00338097199848	8320	-0,039523268287522284	8320	0	8320	0
8330	-0,038476920169925342	8330	120,00451197859687	8330	0,18215576490272048	8330	120,00338097199848	8330	-0,039523268287522284	8330	0	8330	0
8340	-0,042613076168379262	8340	120,00314034127121	8340	-0,46174310804368435	8340	120,00338097199848	8340	-0,039523268287522284	8340	0	8340	0
8350	-0,043901336447299752	8350	120,00179098180789	8350	0,050271174772234861	8350	120,00338097199848	8350	-0,039523268287522284	8350	0	8350	0
8360	-0,030205702846974429	8360	120,00462002520909	8360	0,025882026114992185	8360	120,00338097199848	8360	-0,039523268287522284	8360	0	8360	0
8370	-0,03117108479539555	8370	120,00502038579295	8370	-0,16531780247371952	8370	120,00338097199848	8370	-0,039523268287522284	8370	0	8370	0
8380	-0,029122876294979921	8380	120,00593345382315	8380	1,3746608521770485	8380	120,00338097199848	8380	-0,039523268287522284	8380	0	8380	0
8390	-0,041823318771379438	8390	120,00339768235941	8390	0,13183495971077153	8390	120,00338097199848	8390	-0,039523268287522284	8390	0	8390	0
8400	-0,044024393121956509	8400	120,00441634283618	8400	-0,10870912990634521	8400	120,00338097199848	8400	-0,039523268287522284	8400	0	8400	0
8410	-0,0326506274782191	8410	120,00509015130325	8410	1,2385693780038782	8410	120,00338097199848	8410	-0,039523268287522284	8410	0	8410	0
8420	-0,04256626484255558	8420	120,0007581810668	8420	0,055537993090362073	8420	120,00338097199848	8420	-0,039523268287522284	8420	0	8420	0
8430	-0,048750247901108545	8430	120,00165822571394	8430	-0,30344108745657683	8430	120,00338097199848	8430	-0,039523268287522284	8430	0	8430	0
8440	-0,044746959848174485	8440	120,00267805392517	8440	-0,18180510523437896	8440	120,00338097199848	8440	-0,039523268287522284	8440	0	8440	0
8450	-0,039945191795511446	8450	120,00452478790832	8450	-0,19008898229928747	8450	120,00338097199848	8450	-0,039523268287522284	8450	0	8450	0
8460	-0,035747003304213855	8460	120,00461525136754	8460	0,20578577298852246	8460	120,00338097199848	8460	-0,039523268287522284	8460	0	8460	0
8470	-0,029732094427477946	8470	120,00575638252977	8470	-0,085855037306704435	8470	120,00338097199848	8470	-0,039523268287522284	8470	0	8470	0
8480	-0,02858164807232396	8480	120,00878441005202	8480	0,47740791546339634	8480	120,00338097199848	8480	-0,039523268287522284	8480	0	8480	0
8490	-0,039055828101532089	8490	120,00262835367541	8490	0,23839370766083456	8490	120,00338097199848	8490	-0,039523268287522284	8490	0	8490	0
8500	-0,033408042025715054	8500	120,00342622744519	8500	0,47782274818873471	8500	120,00338097199848	8500	-0,039523268287522284	8500	0	8500	0
8510	-0,039201653882723494	8510	120,00409738893865	8510	0,45013703657584309	8510	120,00338097199848	8510	-0,039523268287522284	8510	0	8510	0
8520	-0,033214175055107972	8520	120,0034631648148	8520	1,0387390572868596	8520	120,00338097199848	8520	-0,039523268287522284	8520	0	8520	0
8530	-0,045465371630076683	8530	120,00243257747604	8530	0,2174902863402931	8530	120,00338097199848	8530	-0,039523268287522284	8530	0	8530	0
8540	-0,012644488268914716	8540	120,00575068373972	8540	0,53001289080259251	8540	120,00338097199848	8540	-0,039523268287522284	8540	0	8540	0
8550	-0,051073727838857372	8550	119,9992271318109	8550	-0,48495490224761506	8550	120,00338097199848	8550	-0,039523268287522284	8550	0	8550	0
8560	-0,03772012546208918	8560	120,00717516820816	8560	0,017685864749802015	8560	120,00338097199848	8560	-0,039523268287522284	8560	0	8560	0
8570	-0,0468506253281654	8570	120,00233372084043	8570	0,4960017453420017	8570	120,00338097199848	8570	-0,039523268287522284	8570	0	8570	0
8580	-0,037505595290309085	8580	120,00549950730651	8580	0,32809382616554134	8580	120,00338097199848	8580	-0,039523268287522284	8580	0	8580	0
8590	-0,0329463967264501	8590	120,0022512997196	8590	-0,42785367027538207	8590	120,00338097199848	8590	-0,039523268287522284	8590	0	8590	0
8600	-0,049706936768142862	8600	120,00174839121981	8600	-0,63835110294696773	8600	120,00338097199848	8600	-0,039523268287522284	8600	0	8600	0
8610	-0,043639067343930443	8610	120,00120075932171	8610	0,23878355463867645	8610	120,00338097199848	8610	-0,039523268287522284	8610	0	8610	0
8620	-0,04413026888362459	8620	120,00238318879725	8620	-0,71793035800143923	8620	120,00338097199848	8620	-0,039523268287522284	8620	0	8620	0
8630	-0,039838893666325786	8630	120,00319931495379	8630	-0,63077414882643157	8630	120,00338097199848	8630	-0,039523268287522284	8630	0	8630	0
8640	-0,028039073228537922	8640	120,00644830960361	8640	0,7173860629205363	8640	120,00338097199848	8640	-0,039523268287522284	8640	0	8640	0
8650	-0,032942468830445659	8650	120,00658158937134	8650	0,43726653012897837	8650	120,00338097199848	8650	-0,039523268287522284	8650	0	8650	0
8660	-0,034592001577937292	8660	120,0060970452811	8660	0,51998732990434571	8660	120,00338097199848	8660	-0,039523268287522284	8660	0	8660	0
8670	-0,064054608736549459	8670	119,99800278799967	8670	-2,2064330614951508	8670	120,00338097199848	8670	-0,039523268287522284	8670	0	8670	0
8680	-0,061604104573564009	8680	120,00167353794946	8680	-1,0904102390325512	8680	120,00338097199848	8680	-0,039523268287522284	8680	0	8680	0
8690	-0,04144310237488056	8690	119,99945602805748	8690	-1,00013326460962	8690	120,00338097199848	8690	-0,039523268287522284	8690	0	8690	0
8700	-0,03674204361889951	8700	120,0040035308233	8700	0,92016233058425057	8700	120,00338097199848	8700	-0,039523268287522284	8700	0	8700	0
8710	-0,037109997891571045	8710	120,00390294844961	8710	0,74401324453724771	8710	120,00338097199848	8710	-0,039523268287522284	8710	0	8710	0
8720	-0,04096237498721296	8720	120,00145046072379	8720	-1,1819406934171957	8720	120,00338097199848	8720	-0,039523268287522284	8720	0	8720	0
8730	-0,049812914533703907	8730	120,00507816333291	8730	-0,31413990407754766	8730	120,00338097199848	8730	-0,039523268287522284	8730	0	8730	0
8740	-0,036555804718384877	8740	120,00414192562981	8740	-0,12905895029845035	8740	120,00338097199848	8740	-0,039523268287522284	8740	0	8740	0
8750	-0,028073442150094486	8750	120,00609266707971	8750	-0,06533604479135835	8750	120,00338097199848	8750	-0,039523268287522284	8750	0	8750	0
8760	-0,037496515810671441	8760	120,00317391088913	8760	-0,37334062754307362	8760	120,00338097199848	8760	-0,039523268287522284	8760	0	8760	0
8770	-0,03018941767234359	8770	120,00425931386478	8770	0,12116158289871493	8770	120,00338097199848	8770	-0,039523268287522284	8770	0	8770	0
8780	-0,045660959878233882	8780	120,00032426745072	8780	-0,49943044897080835	8780	120,00338097199848	8780	-0,039523268287522284	8780	0	8780	0
8790	-0,043042680313055526	8790	120,00152754345038	8790	-0,17632038593040053	8790	120,00338097199848	8790	-0,039523268287522284	8790	0	8790	0
8800	-0,032442163843718751	8800	120,00338051977869	8800	0,31973617530195064	8800	120,00338097199848	8800	-0,039523268287522284	8800	0	8800	0
8810	-0,047883257969987894	8810	120,00136080902331	8810	-0,83244420145028586	8810	120,00338097199848	8810	-0,039523268287522284	8810	0	8810	0
